"subid","age_group","age","sex","english","site","trial_type","trial_num","item_num","correct","rt","expt"
"141204-01-sc",3,3.95,"M",6,"bing","control_single",3,"2vs2",2,1997,"ipad"
"141204-01-sc",3,3.95,"M",6,"bing","inference",4,"3vs1",2,1897,"ipad"
"141204-01-sc",3,3.95,"M",6,"bing","control_double",5,"3vs1",2,3739,"ipad"
"141204-01-sc",3,3.95,"M",6,"bing","control_single",6,"1vs1",2,1517,"ipad"
"141204-01-sc",3,3.95,"M",6,"bing","control_single",8,"1vs1",2,3315,"ipad"
"141204-01-sc",3,3.95,"M",6,"bing","control_single",9,"2vs2",2,2443,"ipad"
"141204-01-sc",3,3.95,"M",6,"bing","control_double",10,"2vs1",2,2169,"ipad"
"141204-01-sc",3,3.95,"M",6,"bing","control_double",11,"3vs1",2,3193,"ipad"
"141204-01-sc",3,3.95,"M",6,"bing","control_single",12,"1vs1",2,2063,"ipad"
"141204-01-sc",3,3.95,"M",6,"bing","control_single",13,"2vs2",2,2650,"ipad"
"141204-01-sc",3,3.95,"M",6,"bing","inference",14,"2vs1",2,4229,"ipad"
"141204-01-sc",3,3.95,"M",6,"bing","control_single",15,"1vs1",2,1967,"ipad"
"141204-01-sc",3,3.95,"M",6,"bing","control_double",16,"2vs1",2,2199,"ipad"
"141204-02-sc",3,3.63,"F",6,"bing","control_single",3,"2vs2",2,2041,"ipad"
"141204-02-sc",3,3.63,"F",6,"bing","inference",4,"2vs1",1,1639,"ipad"
"141204-02-sc",3,3.63,"F",6,"bing","control_double",5,"3vs1",2,1656,"ipad"
"141204-02-sc",3,3.63,"F",6,"bing","control_single",6,"2vs2",1,2177,"ipad"
"141204-02-sc",3,3.63,"F",6,"bing","inference",7,"2vs1",2,2541,"ipad"
"141204-02-sc",3,3.63,"F",6,"bing","control_single",8,"2vs2",2,1655,"ipad"
"141204-02-sc",3,3.63,"F",6,"bing","control_single",9,"2vs2",2,1671,"ipad"
"141204-02-sc",3,3.63,"F",6,"bing","control_double",10,"2vs1",2,2272,"ipad"
"141204-02-sc",3,3.63,"F",6,"bing","control_double",11,"3vs1",2,1728,"ipad"
"141204-02-sc",3,3.63,"F",6,"bing","control_single",12,"1vs1",2,1727,"ipad"
"141204-02-sc",3,3.63,"F",6,"bing","control_single",13,"1vs1",2,2293,"ipad"
"141204-02-sc",3,3.63,"F",6,"bing","inference",14,"3vs1",1,1929,"ipad"
"141204-02-sc",3,3.63,"F",6,"bing","control_single",15,"1vs1",2,2015,"ipad"
"141204-02-sc",3,3.63,"F",6,"bing","control_double",16,"2vs1",2,1839,"ipad"
"141204-03-sc",3,3.84,"F",6,"bing","control_single",3,"2vs2",2,2253,"ipad"
"141204-03-sc",3,3.84,"F",6,"bing","inference",4,"3vs1",2,2257,"ipad"
"141204-03-sc",3,3.84,"F",6,"bing","control_double",5,"3vs1",2,3995,"ipad"
"141204-03-sc",3,3.84,"F",6,"bing","control_single",6,"1vs1",2,1788,"ipad"
"141204-03-sc",3,3.84,"F",6,"bing","control_single",8,"1vs1",2,2487,"ipad"
"141204-03-sc",3,3.84,"F",6,"bing","control_single",9,"2vs2",2,2926,"ipad"
"141204-03-sc",3,3.84,"F",6,"bing","control_double",10,"2vs1",2,2542,"ipad"
"141204-03-sc",3,3.84,"F",6,"bing","control_double",11,"3vs1",2,1806,"ipad"
"141204-03-sc",3,3.84,"F",6,"bing","control_single",12,"1vs1",2,1901,"ipad"
"141204-03-sc",3,3.84,"F",6,"bing","control_single",13,"2vs2",2,1861,"ipad"
"141204-03-sc",3,3.84,"F",6,"bing","inference",14,"2vs1",2,2214,"ipad"
"141204-03-sc",3,3.84,"F",6,"bing","control_single",15,"1vs1",2,1392,"ipad"
"141204-03-sc",3,3.84,"F",6,"bing","control_double",16,"2vs1",2,1355,"ipad"
"141204-04-sc",5,5.06,"F",6,"bing","control_single",3,"2vs2",2,1550,"ipad"
"141204-04-sc",5,5.06,"F",6,"bing","inference",4,"3vs1",2,1823,"ipad"
"141204-04-sc",5,5.06,"F",6,"bing","control_double",5,"3vs1",2,3124,"ipad"
"141204-04-sc",5,5.06,"F",6,"bing","control_single",6,"1vs1",2,1118,"ipad"
"141204-04-sc",5,5.06,"F",6,"bing","inference",7,"3vs1",2,5615,"ipad"
"141204-04-sc",5,5.06,"F",6,"bing","control_single",8,"1vs1",2,1688,"ipad"
"141204-04-sc",5,5.06,"F",6,"bing","control_single",9,"2vs2",2,1713,"ipad"
"141204-04-sc",5,5.06,"F",6,"bing","control_double",10,"2vs1",2,1388,"ipad"
"141204-04-sc",5,5.06,"F",6,"bing","control_double",11,"3vs1",2,1225,"ipad"
"141204-04-sc",5,5.06,"F",6,"bing","control_single",12,"1vs1",2,1073,"ipad"
"141204-04-sc",5,5.06,"F",6,"bing","control_single",13,"2vs2",2,1486,"ipad"
"141204-04-sc",5,5.06,"F",6,"bing","inference",14,"2vs1",2,743,"ipad"
"141204-04-sc",5,5.06,"F",6,"bing","control_single",15,"1vs1",2,4623,"ipad"
"141204-04-sc",5,5.06,"F",6,"bing","control_double",16,"2vs1",2,911,"ipad"
"141204-05-sc",3,3.83,"M",6,"bing","control_single",3,"2vs2",2,2600,"ipad"
"141204-05-sc",3,3.83,"M",6,"bing","inference",4,"2vs1",2,4792,"ipad"
"141204-05-sc",3,3.83,"M",6,"bing","control_double",5,"3vs1",2,1622,"ipad"
"141204-05-sc",3,3.83,"M",6,"bing","control_single",6,"2vs2",2,1556,"ipad"
"141204-05-sc",3,3.83,"M",6,"bing","inference",7,"2vs1",2,1954,"ipad"
"141204-05-sc",3,3.83,"M",6,"bing","control_single",8,"2vs2",2,2265,"ipad"
"141204-05-sc",3,3.83,"M",6,"bing","control_single",9,"2vs2",2,1046,"ipad"
"141204-05-sc",3,3.83,"M",6,"bing","control_double",10,"2vs1",2,1931,"ipad"
"141204-05-sc",3,3.83,"M",6,"bing","control_double",11,"3vs1",2,2060,"ipad"
"141204-05-sc",3,3.83,"M",6,"bing","control_single",12,"1vs1",2,2062,"ipad"
"141204-05-sc",3,3.83,"M",6,"bing","control_single",13,"1vs1",2,1795,"ipad"
"141204-05-sc",3,3.83,"M",6,"bing","inference",14,"3vs1",2,2021,"ipad"
"141204-05-sc",3,3.83,"M",6,"bing","control_single",15,"1vs1",2,2090,"ipad"
"141204-05-sc",3,3.83,"M",6,"bing","control_double",16,"2vs1",2,1793,"ipad"
"141204-06-sc",3,3.65,"F",6,"bing","control_single",3,"2vs2",2,2140,"ipad"
"141204-06-sc",3,3.65,"F",6,"bing","inference",4,"2vs1",2,2575,"ipad"
"141204-06-sc",3,3.65,"F",6,"bing","control_double",5,"3vs1",2,5626,"ipad"
"141204-06-sc",3,3.65,"F",6,"bing","control_single",6,"2vs2",2,1886,"ipad"
"141204-06-sc",3,3.65,"F",6,"bing","inference",7,"2vs1",2,2644,"ipad"
"141204-06-sc",3,3.65,"F",6,"bing","control_single",8,"2vs2",2,2080,"ipad"
"141204-06-sc",3,3.65,"F",6,"bing","control_single",9,"2vs2",2,3306,"ipad"
"141204-06-sc",3,3.65,"F",6,"bing","control_double",10,"2vs1",2,2096,"ipad"
"141204-06-sc",3,3.65,"F",6,"bing","control_double",11,"3vs1",2,4955,"ipad"
"141204-06-sc",3,3.65,"F",6,"bing","control_single",12,"1vs1",2,1585,"ipad"
"141204-06-sc",3,3.65,"F",6,"bing","control_single",13,"1vs1",2,2372,"ipad"
"141204-06-sc",3,3.65,"F",6,"bing","inference",14,"3vs1",2,2193,"ipad"
"141204-06-sc",3,3.65,"F",6,"bing","control_single",15,"1vs1",2,2316,"ipad"
"141204-06-sc",3,3.65,"F",6,"bing","control_double",16,"2vs1",2,3369,"ipad"
"141209-01-sc",3,3.35,"M",6,"bing","control_single",3,"2vs2",2,1560,"ipad"
"141209-01-sc",3,3.35,"M",6,"bing","inference",4,"3vs1",2,1801,"ipad"
"141209-01-sc",3,3.35,"M",6,"bing","control_double",5,"3vs1",2,2989,"ipad"
"141209-01-sc",3,3.35,"M",6,"bing","control_single",6,"1vs1",2,1755,"ipad"
"141209-01-sc",3,3.35,"M",6,"bing","inference",7,"3vs1",2,5152,"ipad"
"141209-01-sc",3,3.35,"M",6,"bing","control_single",8,"1vs1",2,2071,"ipad"
"141209-01-sc",3,3.35,"M",6,"bing","control_single",9,"2vs2",2,1876,"ipad"
"141209-01-sc",3,3.35,"M",6,"bing","control_double",10,"2vs1",2,3940,"ipad"
"141209-01-sc",3,3.35,"M",6,"bing","control_double",11,"3vs1",2,1994,"ipad"
"141209-01-sc",3,3.35,"M",6,"bing","control_single",12,"1vs1",2,1405,"ipad"
"141209-01-sc",3,3.35,"M",6,"bing","control_single",13,"2vs2",2,1432,"ipad"
"141209-01-sc",3,3.35,"M",6,"bing","inference",14,"2vs1",2,1531,"ipad"
"141209-01-sc",3,3.35,"M",6,"bing","control_single",15,"1vs1",2,2079,"ipad"
"141209-01-sc",3,3.35,"M",6,"bing","control_double",16,"2vs1",2,1904,"ipad"
"141209-01-sc",3,3.35,"M",6,"bing","inference",17,"2vs1",2,1747,"ipad"
"141209-01-sc",3,3.35,"M",6,"bing","control_single",18,"2vs2",2,2121,"ipad"
"141209-02-sc",4,4.82,"M",6,"bing","control_single",3,"2vs2",2,2085,"ipad"
"141209-02-sc",4,4.82,"M",6,"bing","inference",4,"2vs1",2,2613,"ipad"
"141209-02-sc",4,4.82,"M",6,"bing","control_double",5,"3vs1",2,1639,"ipad"
"141209-02-sc",4,4.82,"M",6,"bing","control_single",6,"2vs2",2,1830,"ipad"
"141209-02-sc",4,4.82,"M",6,"bing","inference",7,"2vs1",2,2694,"ipad"
"141209-02-sc",4,4.82,"M",6,"bing","control_single",8,"2vs2",2,2660,"ipad"
"141209-02-sc",4,4.82,"M",6,"bing","control_single",9,"2vs2",2,1786,"ipad"
"141209-02-sc",4,4.82,"M",6,"bing","control_double",10,"2vs1",2,1584,"ipad"
"141209-02-sc",4,4.82,"M",6,"bing","control_double",11,"3vs1",2,2287,"ipad"
"141209-02-sc",4,4.82,"M",6,"bing","control_single",12,"1vs1",2,1633,"ipad"
"141209-02-sc",4,4.82,"M",6,"bing","control_single",13,"1vs1",1,1627,"ipad"
"141209-02-sc",4,4.82,"M",6,"bing","inference",14,"3vs1",2,1543,"ipad"
"141209-02-sc",4,4.82,"M",6,"bing","control_single",15,"1vs1",2,1863,"ipad"
"141209-02-sc",4,4.82,"M",6,"bing","control_double",16,"2vs1",2,1941,"ipad"
"141209-02-sc",4,4.82,"M",6,"bing","inference",17,"3vs1",2,1469,"ipad"
"141209-02-sc",4,4.82,"M",6,"bing","control_single",18,"1vs1",2,1170,"ipad"
"141209-03-sc",3,3.39,"F",6,"bing","control_single",3,"2vs2",2,2272,"ipad"
"141209-03-sc",3,3.39,"F",6,"bing","inference",4,"2vs1",2,2032,"ipad"
"141209-03-sc",3,3.39,"F",6,"bing","control_double",5,"3vs1",2,2212,"ipad"
"141209-03-sc",3,3.39,"F",6,"bing","control_single",6,"2vs2",2,1580,"ipad"
"141209-03-sc",3,3.39,"F",6,"bing","inference",7,"2vs1",2,2231,"ipad"
"141209-03-sc",3,3.39,"F",6,"bing","control_single",8,"2vs2",2,2306,"ipad"
"141209-03-sc",3,3.39,"F",6,"bing","control_single",9,"2vs2",2,1812,"ipad"
"141209-03-sc",3,3.39,"F",6,"bing","control_double",10,"2vs1",2,1323,"ipad"
"141209-03-sc",3,3.39,"F",6,"bing","control_double",11,"3vs1",2,1868,"ipad"
"141209-03-sc",3,3.39,"F",6,"bing","control_single",12,"1vs1",2,1383,"ipad"
"141209-03-sc",3,3.39,"F",6,"bing","control_single",13,"1vs1",2,2294,"ipad"
"141209-03-sc",3,3.39,"F",6,"bing","inference",14,"3vs1",2,3974,"ipad"
"141209-03-sc",3,3.39,"F",6,"bing","control_single",15,"1vs1",2,1330,"ipad"
"141209-03-sc",3,3.39,"F",6,"bing","control_double",16,"2vs1",2,2560,"ipad"
"141209-03-sc",3,3.39,"F",6,"bing","inference",17,"3vs1",2,1929,"ipad"
"141209-03-sc",3,3.39,"F",6,"bing","control_single",18,"1vs1",2,1400,"ipad"
"141209-04-sc",5,5.21,"F",6,"bing","control_single",3,"2vs2",2,2325,"ipad"
"141209-04-sc",5,5.21,"F",6,"bing","inference",4,"3vs1",2,1825,"ipad"
"141209-04-sc",5,5.21,"F",6,"bing","control_double",5,"3vs1",2,3153,"ipad"
"141209-04-sc",5,5.21,"F",6,"bing","control_single",6,"1vs1",2,1545,"ipad"
"141209-04-sc",5,5.21,"F",6,"bing","inference",7,"3vs1",2,1200,"ipad"
"141209-04-sc",5,5.21,"F",6,"bing","control_single",8,"1vs1",2,1522,"ipad"
"141209-04-sc",5,5.21,"F",6,"bing","control_single",9,"2vs2",2,1776,"ipad"
"141209-04-sc",5,5.21,"F",6,"bing","control_double",10,"2vs1",2,1602,"ipad"
"141209-04-sc",5,5.21,"F",6,"bing","control_double",11,"3vs1",2,1137,"ipad"
"141209-04-sc",5,5.21,"F",6,"bing","control_single",12,"1vs1",2,1416,"ipad"
"141209-04-sc",5,5.21,"F",6,"bing","control_single",13,"2vs2",2,1521,"ipad"
"141209-04-sc",5,5.21,"F",6,"bing","inference",14,"2vs1",2,1391,"ipad"
"141209-04-sc",5,5.21,"F",6,"bing","control_single",15,"1vs1",2,1776,"ipad"
"141209-04-sc",5,5.21,"F",6,"bing","control_double",16,"2vs1",2,1323,"ipad"
"141209-05-sc",4,4.69,"F",6,"bing","control_single",3,"2vs2",2,1456,"ipad"
"141209-05-sc",4,4.69,"F",6,"bing","inference",4,"2vs1",2,2145,"ipad"
"141209-05-sc",4,4.69,"F",6,"bing","control_double",5,"3vs1",2,1577,"ipad"
"141209-05-sc",4,4.69,"F",6,"bing","control_single",6,"2vs2",2,1519,"ipad"
"141209-05-sc",4,4.69,"F",6,"bing","inference",7,"2vs1",2,1782,"ipad"
"141209-05-sc",4,4.69,"F",6,"bing","control_single",8,"2vs2",2,1350,"ipad"
"141209-05-sc",4,4.69,"F",6,"bing","control_single",9,"2vs2",2,1509,"ipad"
"141209-05-sc",4,4.69,"F",6,"bing","control_double",10,"2vs1",2,1898,"ipad"
"141209-05-sc",4,4.69,"F",6,"bing","control_double",11,"3vs1",2,2229,"ipad"
"141209-05-sc",4,4.69,"F",6,"bing","control_single",12,"1vs1",2,1540,"ipad"
"141209-05-sc",4,4.69,"F",6,"bing","control_single",13,"1vs1",2,1252,"ipad"
"141209-05-sc",4,4.69,"F",6,"bing","inference",14,"3vs1",2,1563,"ipad"
"141209-05-sc",4,4.69,"F",6,"bing","control_single",15,"1vs1",2,1681,"ipad"
"141209-05-sc",4,4.69,"F",6,"bing","control_double",16,"2vs1",2,1500,"ipad"
"141209-05-sc",4,4.69,"F",6,"bing","inference",17,"3vs1",2,1613,"ipad"
"141209-05-sc",4,4.69,"F",6,"bing","control_single",18,"1vs1",2,1835,"ipad"
"141209-06-sc",3,3.21,"F",6,"bing","control_single",3,"2vs2",2,2286,"ipad"
"141209-06-sc",3,3.21,"F",6,"bing","inference",4,"2vs1",2,1705,"ipad"
"141209-06-sc",3,3.21,"F",6,"bing","control_double",5,"3vs1",2,2938,"ipad"
"141209-06-sc",3,3.21,"F",6,"bing","control_single",6,"2vs2",2,1732,"ipad"
"141209-06-sc",3,3.21,"F",6,"bing","inference",7,"2vs1",2,3608,"ipad"
"141209-06-sc",3,3.21,"F",6,"bing","control_single",8,"2vs2",2,2066,"ipad"
"141209-06-sc",3,3.21,"F",6,"bing","control_single",9,"2vs2",2,2058,"ipad"
"141209-06-sc",3,3.21,"F",6,"bing","control_double",10,"2vs1",2,1434,"ipad"
"141209-06-sc",3,3.21,"F",6,"bing","control_double",11,"3vs1",2,2225,"ipad"
"141209-06-sc",3,3.21,"F",6,"bing","control_single",12,"1vs1",2,1627,"ipad"
"141209-06-sc",3,3.21,"F",6,"bing","control_single",13,"1vs1",2,1773,"ipad"
"141209-06-sc",3,3.21,"F",6,"bing","inference",14,"3vs1",2,1702,"ipad"
"141209-06-sc",3,3.21,"F",6,"bing","control_single",15,"1vs1",2,4194,"ipad"
"141209-06-sc",3,3.21,"F",6,"bing","control_double",16,"2vs1",2,1776,"ipad"
"141209-06-sc",3,3.21,"F",6,"bing","inference",17,"3vs1",2,3611,"ipad"
"141209-06-sc",3,3.21,"F",6,"bing","control_single",18,"1vs1",2,2542,"ipad"
"150108-01-sc",4,4.55,"F",5,"bing","control_single",3,"2vs2",2,2051,"ipad"
"150108-01-sc",4,4.55,"F",5,"bing","inference",4,"3vs1",2,2174,"ipad"
"150108-01-sc",4,4.55,"F",5,"bing","control_double",5,"3vs1",2,3865,"ipad"
"150108-01-sc",4,4.55,"F",5,"bing","control_single",6,"1vs1",2,1380,"ipad"
"150108-01-sc",4,4.55,"F",5,"bing","inference",7,"3vs1",2,2752,"ipad"
"150108-01-sc",4,4.55,"F",5,"bing","control_single",8,"1vs1",2,1706,"ipad"
"150108-01-sc",4,4.55,"F",5,"bing","control_single",9,"2vs2",2,2095,"ipad"
"150108-01-sc",4,4.55,"F",5,"bing","control_double",10,"2vs1",2,2091,"ipad"
"150108-01-sc",4,4.55,"F",5,"bing","control_double",11,"3vs1",2,1634,"ipad"
"150108-01-sc",4,4.55,"F",5,"bing","control_single",12,"1vs1",1,1063,"ipad"
"150108-01-sc",4,4.55,"F",5,"bing","control_single",13,"2vs2",2,1164,"ipad"
"150108-01-sc",4,4.55,"F",5,"bing","inference",14,"2vs1",2,2764,"ipad"
"150108-01-sc",4,4.55,"F",5,"bing","control_single",15,"1vs1",2,1995,"ipad"
"150108-01-sc",4,4.55,"F",5,"bing","control_double",16,"2vs1",2,1270,"ipad"
"150108-01-sc",4,4.55,"F",5,"bing","inference",17,"2vs1",1,1808,"ipad"
"150108-01-sc",4,4.55,"F",5,"bing","control_single",18,"2vs2",2,4017,"ipad"
"150109-01-sc",2,2.08,"M",5,"cdm","control_single",3,"2vs2",2,2007,"ipad"
"150109-01-sc",2,2.08,"M",5,"cdm","inference",4,"3vs1",1,1936,"ipad"
"150109-01-sc",2,2.08,"M",5,"cdm","control_double",5,"3vs1",2,3185,"ipad"
"150109-01-sc",2,2.08,"M",5,"cdm","control_single",6,"1vs1",1,5517,"ipad"
"150109-01-sc",2,2.08,"M",5,"cdm","inference",7,"3vs1",1,3159,"ipad"
"150109-01-sc",2,2.08,"M",5,"cdm","control_single",8,"1vs1",2,4495,"ipad"
"150109-01-sc",2,2.08,"M",5,"cdm","control_single",9,"2vs2",1,3247,"ipad"
"150109-01-sc",2,2.08,"M",5,"cdm","control_double",10,"2vs1",2,4436,"ipad"
"150109-01-sc",2,2.08,"M",5,"cdm","control_double",11,"3vs1",1,2816,"ipad"
"150109-01-sc",2,2.08,"M",5,"cdm","control_single",12,"1vs1",2,2790,"ipad"
"150109-01-sc",2,2.08,"M",5,"cdm","control_single",13,"2vs2",2,2808,"ipad"
"150109-01-sc",2,2.08,"M",5,"cdm","inference",14,"2vs1",2,3718,"ipad"
"150109-01-sc",2,2.08,"M",5,"cdm","control_single",15,"1vs1",1,1734,"ipad"
"150109-01-sc",2,2.08,"M",5,"cdm","control_double",16,"2vs1",2,4477,"ipad"
"150109-01-sc",2,2.08,"M",5,"cdm","inference",17,"2vs1",2,2528,"ipad"
"150109-01-sc",2,2.08,"M",5,"cdm","control_single",18,"2vs2",2,12611,"ipad"
"150109-02-sc",2,2.87,"F",6,"cdm","control_single",3,"2vs2",2,8829,"ipad"
"150109-02-sc",2,2.87,"F",6,"cdm","inference",4,"2vs1",2,3775,"ipad"
"150109-02-sc",2,2.87,"F",6,"cdm","control_double",5,"3vs1",2,8715,"ipad"
"150109-02-sc",2,2.87,"F",6,"cdm","control_single",6,"2vs2",2,5502,"ipad"
"150109-02-sc",2,2.87,"F",6,"cdm","inference",7,"2vs1",1,3308,"ipad"
"150109-02-sc",2,2.87,"F",6,"cdm","control_single",8,"2vs2",2,2783,"ipad"
"150109-02-sc",2,2.87,"F",6,"cdm","control_single",9,"2vs2",2,4994,"ipad"
"150109-02-sc",2,2.87,"F",6,"cdm","control_double",10,"2vs1",2,3039,"ipad"
"150109-02-sc",2,2.87,"F",6,"cdm","control_double",11,"3vs1",1,4865,"ipad"
"150109-02-sc",2,2.87,"F",6,"cdm","control_single",12,"1vs1",2,10287,"ipad"
"150109-02-sc",2,2.87,"F",6,"cdm","control_single",13,"1vs1",2,3401,"ipad"
"150109-02-sc",2,2.87,"F",6,"cdm","inference",14,"3vs1",1,3646,"ipad"
"150109-02-sc",2,2.87,"F",6,"cdm","control_single",15,"1vs1",2,2732,"ipad"
"150109-02-sc",2,2.87,"F",6,"cdm","control_double",16,"2vs1",2,3498,"ipad"
"150109-02-sc",2,2.87,"F",6,"cdm","inference",17,"3vs1",1,3211,"ipad"
"150109-02-sc",2,2.87,"F",6,"cdm","control_single",18,"1vs1",2,2922,"ipad"
"150109-03-sc",2,2.22,"M",6,"cdm","control_single",3,"2vs2",2,2233,"ipad"
"150109-03-sc",2,2.22,"M",6,"cdm","inference",4,"3vs1",1,2670,"ipad"
"150109-03-sc",2,2.22,"M",6,"cdm","control_double",5,"3vs1",1,3478,"ipad"
"150109-03-sc",2,2.22,"M",6,"cdm","inference",7,"3vs1",1,513,"ipad"
"150109-03-sc",2,2.22,"M",6,"cdm","control_single",8,"1vs1",2,502,"ipad"
"150109-03-sc",2,2.22,"M",6,"cdm","control_single",9,"2vs2",2,7177,"ipad"
"150109-03-sc",2,2.22,"M",6,"cdm","control_double",10,"2vs1",2,3899,"ipad"
"150109-03-sc",2,2.22,"M",6,"cdm","control_double",11,"3vs1",2,3167,"ipad"
"150109-03-sc",2,2.22,"M",6,"cdm","control_single",12,"1vs1",1,1319,"ipad"
"150109-03-sc",2,2.22,"M",6,"cdm","control_single",13,"2vs2",1,486,"ipad"
"150109-03-sc",2,2.22,"M",6,"cdm","control_single",15,"1vs1",2,3859,"ipad"
"150109-03-sc",2,2.22,"M",6,"cdm","control_double",16,"2vs1",1,5679,"ipad"
"150109-03-sc",2,2.22,"M",6,"cdm","inference",17,"2vs1",1,2713,"ipad"
"150109-03-sc",2,2.22,"M",6,"cdm","control_single",18,"2vs2",2,1937,"ipad"
"150109-04",2,2.43,"F",6,"cdm","control_single",3,"2vs2",1,4264,"ipad"
"150109-04",2,2.43,"F",6,"cdm","inference",4,"3vs1",1,2419,"ipad"
"150109-04",2,2.43,"F",6,"cdm","control_double",5,"3vs1",2,3400,"ipad"
"150109-04",2,2.43,"F",6,"cdm","control_single",6,"1vs1",2,3941,"ipad"
"150109-04",2,2.43,"F",6,"cdm","inference",7,"3vs1",2,2200,"ipad"
"150109-04",2,2.43,"F",6,"cdm","control_single",8,"1vs1",2,5230,"ipad"
"150109-04",2,2.43,"F",6,"cdm","control_single",9,"2vs2",2,4307,"ipad"
"150109-04",2,2.43,"F",6,"cdm","control_double",10,"2vs1",2,2282,"ipad"
"150109-04",2,2.43,"F",6,"cdm","control_double",11,"3vs1",2,2571,"ipad"
"150109-04",2,2.43,"F",6,"cdm","control_single",12,"1vs1",1,4045,"ipad"
"150109-04",2,2.43,"F",6,"cdm","control_single",13,"2vs2",2,2668,"ipad"
"150109-04",2,2.43,"F",6,"cdm","inference",14,"2vs1",1,2619,"ipad"
"150109-04",2,2.43,"F",6,"cdm","control_single",15,"1vs1",2,2241,"ipad"
"150109-04",2,2.43,"F",6,"cdm","control_double",16,"2vs1",2,4718,"ipad"
"150109-04",2,2.43,"F",6,"cdm","inference",17,"2vs1",1,2206,"ipad"
"150109-04",2,2.43,"F",6,"cdm","control_single",18,"2vs2",2,2947,"ipad"
"150109-06",2,2.12,"F",6,"cdm","control_single",3,"2vs2",1,14770,"ipad"
"150109-06",2,2.12,"F",6,"cdm","inference",4,"3vs1",1,12571,"ipad"
"150109-06",2,2.12,"F",6,"cdm","control_single",5,"3vs1",2,11540,"ipad"
"150109-06",2,2.12,"F",6,"cdm","inference",7,"3vs1",2,3108,"ipad"
"150109-06",2,2.12,"F",6,"cdm","control_single",8,"1vs1",1,1061,"ipad"
"150109-06",2,2.12,"F",6,"cdm","control_single",9,"2vs2",1,7530,"ipad"
"150109-06",2,2.12,"F",6,"cdm","control_double",10,"2vs1",2,467,"ipad"
"150109-06",2,2.12,"F",6,"cdm","control_double",11,"3vs1",1,10744,"ipad"
"150109-06",2,2.12,"F",6,"cdm","control_single",15,"1vs1",1,506,"ipad"
"150109-06",2,2.12,"F",6,"cdm","inference",17,"2vs1",1,659,"ipad"
"150109-07",3,3.1,"F",6,"cdm","control_single",3,"2vs2",2,2167,"ipad"
"150109-07",3,3.1,"F",6,"cdm","inference",4,"2vs1",2,2868,"ipad"
"150109-07",3,3.1,"F",6,"cdm","control_double",5,"3vs1",1,7664,"ipad"
"150109-07",3,3.1,"F",6,"cdm","control_single",6,"2vs2",2,5285,"ipad"
"150109-07",3,3.1,"F",6,"cdm","inference",7,"2vs1",1,4333,"ipad"
"150109-07",3,3.1,"F",6,"cdm","control_single",8,"2vs2",2,2722,"ipad"
"150109-07",3,3.1,"F",6,"cdm","control_single",9,"2vs2",1,4892,"ipad"
"150109-07",3,3.1,"F",6,"cdm","control_double",10,"2vs1",2,3064,"ipad"
"150109-07",3,3.1,"F",6,"cdm","control_double",11,"3vs1",1,2943,"ipad"
"150109-07",3,3.1,"F",6,"cdm","control_single",12,"1vs1",1,2675,"ipad"
"150109-07",3,3.1,"F",6,"cdm","control_single",13,"1vs1",2,2724,"ipad"
"150109-07",3,3.1,"F",6,"cdm","inference",14,"3vs1",1,3131,"ipad"
"150109-07",3,3.1,"F",6,"cdm","control_single",15,"1vs1",2,2094,"ipad"
"150109-07",3,3.1,"F",6,"cdm","inference",17,"3vs1",2,3344,"ipad"
"150109-07",3,3.1,"F",6,"cdm","control_single",18,"1vs1",2,3497,"ipad"
"150109-08",4,4.36,"M",6,"cdm","control_single",3,"2vs2",2,2928,"ipad"
"150109-08",4,4.36,"M",6,"cdm","inference",4,"2vs1",2,2619,"ipad"
"150109-08",4,4.36,"M",6,"cdm","control_double",5,"3vs1",2,1278,"ipad"
"150109-08",4,4.36,"M",6,"cdm","control_single",6,"2vs2",2,1074,"ipad"
"150109-08",4,4.36,"M",6,"cdm","inference",7,"2vs1",2,1850,"ipad"
"150109-08",4,4.36,"M",6,"cdm","control_single",8,"2vs2",2,1281,"ipad"
"150109-08",4,4.36,"M",6,"cdm","control_single",9,"2vs2",2,1353,"ipad"
"150109-08",4,4.36,"M",6,"cdm","control_double",10,"2vs1",2,1591,"ipad"
"150109-08",4,4.36,"M",6,"cdm","control_double",11,"3vs1",2,1895,"ipad"
"150109-08",4,4.36,"M",6,"cdm","control_single",12,"1vs1",2,1425,"ipad"
"150109-08",4,4.36,"M",6,"cdm","control_single",13,"1vs1",2,1158,"ipad"
"150109-08",4,4.36,"M",6,"cdm","inference",14,"3vs1",2,1644,"ipad"
"150109-08",4,4.36,"M",6,"cdm","control_single",15,"1vs1",2,1594,"ipad"
"150109-08",4,4.36,"M",6,"cdm","control_double",16,"2vs1",2,1502,"ipad"
"150109-08",4,4.36,"M",6,"cdm","inference",17,"3vs1",2,1928,"ipad"
"150109-08",4,4.36,"M",6,"cdm","control_single",18,"1vs1",2,1573,"ipad"
"150115-01-sc",3,3.93,"F",6,"bing","control_single",3,"2vs2",2,1624,"ipad"
"150115-01-sc",3,3.93,"F",6,"bing","inference",4,"2vs1",2,2199,"ipad"
"150115-01-sc",3,3.93,"F",6,"bing","control_double",5,"3vs1",2,1975,"ipad"
"150115-01-sc",3,3.93,"F",6,"bing","control_single",6,"2vs2",2,1573,"ipad"
"150115-01-sc",3,3.93,"F",6,"bing","inference",7,"2vs1",2,1855,"ipad"
"150115-01-sc",3,3.93,"F",6,"bing","control_single",8,"2vs2",2,1187,"ipad"
"150115-01-sc",3,3.93,"F",6,"bing","control_single",9,"2vs2",2,1900,"ipad"
"150115-01-sc",3,3.93,"F",6,"bing","control_double",10,"2vs1",2,1545,"ipad"
"150115-01-sc",3,3.93,"F",6,"bing","control_double",11,"3vs1",2,2266,"ipad"
"150115-01-sc",3,3.93,"F",6,"bing","control_single",12,"1vs1",2,1481,"ipad"
"150115-01-sc",3,3.93,"F",6,"bing","control_single",13,"1vs1",2,2065,"ipad"
"150115-01-sc",3,3.93,"F",6,"bing","inference",14,"3vs1",2,1343,"ipad"
"150115-01-sc",3,3.93,"F",6,"bing","control_single",15,"1vs1",2,1319,"ipad"
"150115-01-sc",3,3.93,"F",6,"bing","control_double",16,"2vs1",2,1107,"ipad"
"150115-01-sc",3,3.93,"F",6,"bing","inference",17,"3vs1",2,1513,"ipad"
"150115-01-sc",3,3.93,"F",6,"bing","control_single",18,"1vs1",2,2144,"ipad"
"150115-02-sc",3,3.38,"F",6,"bing","control_single",3,"2vs2",2,3393,"ipad"
"150115-02-sc",3,3.38,"F",6,"bing","inference",4,"3vs1",2,11699,"ipad"
"150115-02-sc",3,3.38,"F",6,"bing","control_double",5,"3vs1",2,3135,"ipad"
"150115-02-sc",3,3.38,"F",6,"bing","control_single",6,"1vs1",2,2178,"ipad"
"150115-02-sc",3,3.38,"F",6,"bing","inference",7,"3vs1",1,8961,"ipad"
"150115-02-sc",3,3.38,"F",6,"bing","control_single",8,"1vs1",2,1771,"ipad"
"150115-02-sc",3,3.38,"F",6,"bing","control_single",9,"2vs2",2,2663,"ipad"
"150115-02-sc",3,3.38,"F",6,"bing","control_double",10,"2vs1",2,2975,"ipad"
"150115-02-sc",3,3.38,"F",6,"bing","control_double",11,"3vs1",2,2144,"ipad"
"150115-02-sc",3,3.38,"F",6,"bing","control_single",12,"1vs1",2,3067,"ipad"
"150115-02-sc",3,3.38,"F",6,"bing","control_single",13,"2vs2",2,2127,"ipad"
"150115-02-sc",3,3.38,"F",6,"bing","inference",14,"2vs1",2,4926,"ipad"
"150115-02-sc",3,3.38,"F",6,"bing","control_single",15,"1vs1",2,9185,"ipad"
"150115-02-sc",3,3.38,"F",6,"bing","control_double",16,"2vs1",2,2162,"ipad"
"150115-02-sc",3,3.38,"F",6,"bing","inference",17,"2vs1",2,1326,"ipad"
"150115-02-sc",3,3.38,"F",6,"bing","control_single",18,"2vs2",2,5135,"ipad"
"150115-03-sc",4,4.8,"F",6,"bing","control_single",3,"2vs2",2,2430,"ipad"
"150115-03-sc",4,4.8,"F",6,"bing","inference",4,"2vs1",2,3677,"ipad"
"150115-03-sc",4,4.8,"F",6,"bing","control_double",5,"3vs1",2,1489,"ipad"
"150115-03-sc",4,4.8,"F",6,"bing","control_single",6,"2vs2",2,1434,"ipad"
"150115-03-sc",4,4.8,"F",6,"bing","inference",7,"2vs1",2,3401,"ipad"
"150115-03-sc",4,4.8,"F",6,"bing","control_single",8,"2vs2",2,1940,"ipad"
"150115-03-sc",4,4.8,"F",6,"bing","control_single",9,"2vs2",2,1312,"ipad"
"150115-03-sc",4,4.8,"F",6,"bing","control_double",10,"2vs1",2,2084,"ipad"
"150115-03-sc",4,4.8,"F",6,"bing","control_double",11,"3vs1",2,2352,"ipad"
"150115-03-sc",4,4.8,"F",6,"bing","control_single",12,"1vs1",2,1611,"ipad"
"150115-03-sc",4,4.8,"F",6,"bing","control_single",13,"1vs1",2,1891,"ipad"
"150115-03-sc",4,4.8,"F",6,"bing","inference",14,"3vs1",2,2447,"ipad"
"150115-03-sc",4,4.8,"F",6,"bing","control_single",15,"1vs1",2,1883,"ipad"
"150115-03-sc",4,4.8,"F",6,"bing","control_double",16,"2vs1",2,1703,"ipad"
"150115-03-sc",4,4.8,"F",6,"bing","inference",17,"3vs1",2,2887,"ipad"
"150115-03-sc",4,4.8,"F",6,"bing","control_single",18,"1vs1",2,1479,"ipad"
"150115-04-sc",4,4.67,"M",6,"bing","control_single",3,"2vs2",2,1783,"ipad"
"150115-04-sc",4,4.67,"M",6,"bing","inference",4,"2vs1",2,2061,"ipad"
"150115-04-sc",4,4.67,"M",6,"bing","control_double",5,"3vs1",2,1981,"ipad"
"150115-04-sc",4,4.67,"M",6,"bing","control_single",6,"2vs2",2,1742,"ipad"
"150115-04-sc",4,4.67,"M",6,"bing","inference",7,"2vs1",2,4076,"ipad"
"150115-04-sc",4,4.67,"M",6,"bing","control_single",8,"2vs2",2,2198,"ipad"
"150115-04-sc",4,4.67,"M",6,"bing","control_single",9,"2vs2",2,4305,"ipad"
"150115-04-sc",4,4.67,"M",6,"bing","control_double",10,"2vs1",2,3492,"ipad"
"150115-04-sc",4,4.67,"M",6,"bing","control_double",11,"3vs1",2,2210,"ipad"
"150115-04-sc",4,4.67,"M",6,"bing","control_single",12,"1vs1",2,2316,"ipad"
"150115-04-sc",4,4.67,"M",6,"bing","control_single",13,"1vs1",2,3535,"ipad"
"150115-04-sc",4,4.67,"M",6,"bing","inference",14,"3vs1",2,3281,"ipad"
"150115-04-sc",4,4.67,"M",6,"bing","control_single",15,"1vs1",2,1705,"ipad"
"150115-04-sc",4,4.67,"M",6,"bing","control_double",16,"2vs1",2,2287,"ipad"
"150115-04-sc",4,4.67,"M",6,"bing","inference",17,"3vs1",2,1879,"ipad"
"150115-04-sc",4,4.67,"M",6,"bing","control_single",18,"1vs1",2,1391,"ipad"
"150115-05-sc",5,5.27,"F",6,"bing","control_single",3,"2vs2",2,1937,"ipad"
"150115-05-sc",5,5.27,"F",6,"bing","inference",4,"3vs1",2,1768,"ipad"
"150115-05-sc",5,5.27,"F",6,"bing","control_double",5,"3vs1",2,3864,"ipad"
"150115-05-sc",5,5.27,"F",6,"bing","control_single",6,"1vs1",1,2115,"ipad"
"150115-05-sc",5,5.27,"F",6,"bing","inference",7,"3vs1",2,1718,"ipad"
"150115-05-sc",5,5.27,"F",6,"bing","control_single",8,"1vs1",2,1777,"ipad"
"150115-05-sc",5,5.27,"F",6,"bing","control_single",9,"2vs2",2,1539,"ipad"
"150115-05-sc",5,5.27,"F",6,"bing","control_double",10,"2vs1",2,1316,"ipad"
"150115-05-sc",5,5.27,"F",6,"bing","control_double",11,"3vs1",2,1547,"ipad"
"150115-05-sc",5,5.27,"F",6,"bing","control_single",12,"1vs1",2,1462,"ipad"
"150115-05-sc",5,5.27,"F",6,"bing","control_single",13,"2vs2",2,3259,"ipad"
"150115-05-sc",5,5.27,"F",6,"bing","control_single",15,"1vs1",2,1776,"ipad"
"150115-05-sc",5,5.27,"F",6,"bing","control_double",16,"2vs1",1,3550,"ipad"
"150115-05-sc",5,5.27,"F",6,"bing","inference",17,"2vs1",2,2255,"ipad"
"150115-05-sc",5,5.27,"F",6,"bing","control_single",18,"2vs2",2,1734,"ipad"
"150115-06-sc",3,3.72,"M",6,"bing","control_single",3,"2vs2",1,1576,"ipad"
"150115-06-sc",3,3.72,"M",6,"bing","inference",4,"2vs1",1,526,"ipad"
"150115-06-sc",3,3.72,"M",6,"bing","control_double",5,"3vs1",2,1724,"ipad"
"150115-06-sc",3,3.72,"M",6,"bing","control_single",6,"2vs2",1,1304,"ipad"
"150115-06-sc",3,3.72,"M",6,"bing","inference",7,"2vs1",1,2679,"ipad"
"150115-06-sc",3,3.72,"M",6,"bing","control_single",8,"2vs2",1,6113,"ipad"
"150115-06-sc",3,3.72,"M",6,"bing","control_single",9,"2vs2",2,2192,"ipad"
"150115-06-sc",3,3.72,"M",6,"bing","control_double",10,"2vs1",1,2647,"ipad"
"150115-06-sc",3,3.72,"M",6,"bing","control_double",11,"3vs1",1,1717,"ipad"
"150115-06-sc",3,3.72,"M",6,"bing","control_single",12,"1vs1",2,5290,"ipad"
"150115-06-sc",3,3.72,"M",6,"bing","control_single",13,"1vs1",2,3340,"ipad"
"150115-06-sc",3,3.72,"M",6,"bing","inference",14,"3vs1",2,3248,"ipad"
"150115-06-sc",3,3.72,"M",6,"bing","control_single",15,"1vs1",2,2460,"ipad"
"150115-06-sc",3,3.72,"M",6,"bing","control_double",16,"2vs1",1,1344,"ipad"
"150115-06-sc",3,3.72,"M",6,"bing","inference",17,"3vs1",2,7076,"ipad"
"150115-07-sc",5,5.13,"F",6,"bing","control_single",3,"2vs2",2,1498,"ipad"
"150115-07-sc",5,5.13,"F",6,"bing","inference",4,"3vs1",2,1758,"ipad"
"150115-07-sc",5,5.13,"F",6,"bing","control_double",5,"3vs1",2,3633,"ipad"
"150115-07-sc",5,5.13,"F",6,"bing","control_single",6,"1vs1",2,1476,"ipad"
"150115-07-sc",5,5.13,"F",6,"bing","inference",7,"3vs1",2,2041,"ipad"
"150115-07-sc",5,5.13,"F",6,"bing","control_single",8,"1vs1",2,1581,"ipad"
"150115-07-sc",5,5.13,"F",6,"bing","control_single",9,"2vs2",2,2333,"ipad"
"150115-07-sc",5,5.13,"F",6,"bing","control_double",10,"2vs1",2,1728,"ipad"
"150115-07-sc",5,5.13,"F",6,"bing","control_double",11,"3vs1",2,1636,"ipad"
"150115-07-sc",5,5.13,"F",6,"bing","control_single",12,"1vs1",2,1187,"ipad"
"150115-07-sc",5,5.13,"F",6,"bing","control_single",13,"2vs2",2,1362,"ipad"
"150115-07-sc",5,5.13,"F",6,"bing","inference",14,"2vs1",2,2346,"ipad"
"150115-07-sc",5,5.13,"F",6,"bing","control_single",15,"1vs1",2,3192,"ipad"
"150115-07-sc",5,5.13,"F",6,"bing","control_double",16,"2vs1",2,1502,"ipad"
"150115-07-sc",5,5.13,"F",6,"bing","inference",17,"2vs1",2,1532,"ipad"
"150115-07-sc",5,5.13,"F",6,"bing","control_single",18,"2vs2",2,2272,"ipad"
"150116-01-sc",5,5.39,"M",5,"cdm","control_single",3,"2vs2",2,3083,"ipad"
"150116-01-sc",5,5.39,"M",5,"cdm","inference",4,"3vs1",2,2397,"ipad"
"150116-01-sc",5,5.39,"M",5,"cdm","control_double",5,"3vs1",2,3813,"ipad"
"150116-01-sc",5,5.39,"M",5,"cdm","control_single",6,"1vs1",2,2222,"ipad"
"150116-01-sc",5,5.39,"M",5,"cdm","inference",7,"3vs1",1,3886,"ipad"
"150116-01-sc",5,5.39,"M",5,"cdm","control_single",8,"1vs1",2,3030,"ipad"
"150116-01-sc",5,5.39,"M",5,"cdm","control_single",9,"2vs2",2,2067,"ipad"
"150116-01-sc",5,5.39,"M",5,"cdm","control_double",10,"2vs1",2,1640,"ipad"
"150116-01-sc",5,5.39,"M",5,"cdm","control_double",11,"3vs1",2,2016,"ipad"
"150116-01-sc",5,5.39,"M",5,"cdm","control_single",12,"1vs1",2,3186,"ipad"
"150116-01-sc",5,5.39,"M",5,"cdm","control_single",13,"2vs2",2,1704,"ipad"
"150116-01-sc",5,5.39,"M",5,"cdm","inference",14,"2vs1",2,1307,"ipad"
"150116-01-sc",5,5.39,"M",5,"cdm","control_single",15,"1vs1",2,1138,"ipad"
"150116-01-sc",5,5.39,"M",5,"cdm","control_double",16,"2vs1",2,1308,"ipad"
"150116-01-sc",5,5.39,"M",5,"cdm","inference",17,"2vs1",1,4223,"ipad"
"150116-02-sc",3,3.36,"M",6,"cdm","control_single",3,"2vs2",2,2393,"ipad"
"150116-02-sc",3,3.36,"M",6,"cdm","inference",4,"2vs1",2,3504,"ipad"
"150116-02-sc",3,3.36,"M",6,"cdm","control_double",5,"3vs1",2,3024,"ipad"
"150116-02-sc",3,3.36,"M",6,"cdm","control_single",6,"2vs2",2,2122,"ipad"
"150116-02-sc",3,3.36,"M",6,"cdm","inference",7,"2vs1",2,3397,"ipad"
"150116-02-sc",3,3.36,"M",6,"cdm","control_single",8,"2vs2",2,3957,"ipad"
"150116-02-sc",3,3.36,"M",6,"cdm","control_single",9,"2vs2",2,2487,"ipad"
"150116-02-sc",3,3.36,"M",6,"cdm","control_double",10,"2vs1",2,2145,"ipad"
"150116-02-sc",3,3.36,"M",6,"cdm","control_double",11,"3vs1",2,3468,"ipad"
"150116-02-sc",3,3.36,"M",6,"cdm","control_single",12,"1vs1",2,2530,"ipad"
"150116-02-sc",3,3.36,"M",6,"cdm","control_single",13,"1vs1",2,2116,"ipad"
"150116-02-sc",3,3.36,"M",6,"cdm","inference",14,"3vs1",2,3592,"ipad"
"150116-02-sc",3,3.36,"M",6,"cdm","control_single",15,"1vs1",2,1811,"ipad"
"150116-02-sc",3,3.36,"M",6,"cdm","control_double",16,"2vs1",1,1796,"ipad"
"150116-03-sc",4,4.51,"M",6,"cdm","control_single",3,"2vs2",2,2511,"ipad"
"150116-03-sc",4,4.51,"M",6,"cdm","inference",4,"3vs1",2,4459,"ipad"
"150116-03-sc",4,4.51,"M",6,"cdm","control_double",5,"3vs1",2,2994,"ipad"
"150116-03-sc",4,4.51,"M",6,"cdm","control_single",6,"1vs1",2,2783,"ipad"
"150116-03-sc",4,4.51,"M",6,"cdm","inference",7,"3vs1",2,1482,"ipad"
"150116-03-sc",4,4.51,"M",6,"cdm","control_single",8,"1vs1",2,1454,"ipad"
"150116-03-sc",4,4.51,"M",6,"cdm","control_single",9,"2vs2",2,944,"ipad"
"150116-03-sc",4,4.51,"M",6,"cdm","control_double",10,"2vs1",2,1536,"ipad"
"150116-03-sc",4,4.51,"M",6,"cdm","control_double",11,"3vs1",2,1459,"ipad"
"150116-03-sc",4,4.51,"M",6,"cdm","control_single",12,"1vs1",2,1779,"ipad"
"150116-03-sc",4,4.51,"M",6,"cdm","control_single",13,"2vs2",2,1956,"ipad"
"150116-03-sc",4,4.51,"M",6,"cdm","inference",14,"2vs1",2,1103,"ipad"
"150116-03-sc",4,4.51,"M",6,"cdm","control_single",15,"1vs1",2,947,"ipad"
"150116-03-sc",4,4.51,"M",6,"cdm","control_double",16,"2vs1",2,1239,"ipad"
"150116-03-sc",4,4.51,"M",6,"cdm","inference",17,"2vs1",2,1404,"ipad"
"150116-03-sc",4,4.51,"M",6,"cdm","control_single",18,"2vs2",2,1650,"ipad"
"150116-04-sc",3,3.44,"M",6,"cdm","control_single",3,"2vs2",1,3211,"ipad"
"150116-04-sc",3,3.44,"M",6,"cdm","inference",4,"2vs1",1,7063,"ipad"
"150116-04-sc",3,3.44,"M",6,"cdm","control_double",5,"3vs1",2,4420,"ipad"
"150116-04-sc",3,3.44,"M",6,"cdm","control_single",6,"2vs2",2,4031,"ipad"
"150116-04-sc",3,3.44,"M",6,"cdm","inference",7,"2vs1",1,4155,"ipad"
"150116-04-sc",3,3.44,"M",6,"cdm","control_single",8,"2vs2",2,13311,"ipad"
"150116-04-sc",3,3.44,"M",6,"cdm","control_single",9,"2vs2",2,5973,"ipad"
"150116-04-sc",3,3.44,"M",6,"cdm","control_double",10,"2vs1",2,3685,"ipad"
"150116-04-sc",3,3.44,"M",6,"cdm","control_double",11,"3vs1",2,6330,"ipad"
"150116-04-sc",3,3.44,"M",6,"cdm","control_single",12,"1vs1",2,3281,"ipad"
"150116-04-sc",3,3.44,"M",6,"cdm","control_single",13,"1vs1",2,4234,"ipad"
"150116-04-sc",3,3.44,"M",6,"cdm","inference",14,"3vs1",1,4810,"ipad"
"150116-04-sc",3,3.44,"M",6,"cdm","control_single",15,"1vs1",2,2340,"ipad"
"150116-04-sc",3,3.44,"M",6,"cdm","control_double",16,"2vs1",2,5483,"ipad"
"150116-04-sc",3,3.44,"M",6,"cdm","inference",17,"3vs1",2,2340,"ipad"
"150116-04-sc",3,3.44,"M",6,"cdm","control_single",18,"1vs1",2,4416,"ipad"
"150116-07-sc",3,3.76,"F",6,"cdm","control_single",3,"2vs2",2,3283,"ipad"
"150116-07-sc",3,3.76,"F",6,"cdm","inference",4,"3vs1",2,2026,"ipad"
"150116-07-sc",3,3.76,"F",6,"cdm","control_double",5,"3vs1",2,2995,"ipad"
"150116-07-sc",3,3.76,"F",6,"cdm","control_single",6,"1vs1",2,2601,"ipad"
"150116-07-sc",3,3.76,"F",6,"cdm","control_single",8,"1vs1",2,2120,"ipad"
"150116-07-sc",3,3.76,"F",6,"cdm","control_single",9,"2vs2",2,2003,"ipad"
"150116-07-sc",3,3.76,"F",6,"cdm","control_double",10,"2vs1",2,5266,"ipad"
"150116-07-sc",3,3.76,"F",6,"cdm","control_double",11,"3vs1",2,2718,"ipad"
"150116-07-sc",3,3.76,"F",6,"cdm","control_single",12,"1vs1",2,2135,"ipad"
"150116-07-sc",3,3.76,"F",6,"cdm","control_single",13,"2vs2",2,1729,"ipad"
"150116-07-sc",3,3.76,"F",6,"cdm","inference",14,"2vs1",2,1501,"ipad"
"150116-07-sc",3,3.76,"F",6,"cdm","control_single",15,"1vs1",2,1654,"ipad"
"150116-07-sc",3,3.76,"F",6,"cdm","control_double",16,"2vs1",2,1753,"ipad"
"150116-07-sc",3,3.76,"F",6,"cdm","inference",17,"2vs1",1,1720,"ipad"
"150116-07-sc",3,3.76,"F",6,"cdm","control_single",18,"2vs2",2,3051,"ipad"
"150116-08-sc",5,5.12,"F",6,"cdm","control_single",3,"2vs2",2,1610,"ipad"
"150116-08-sc",5,5.12,"F",6,"cdm","inference",4,"2vs1",2,2671,"ipad"
"150116-08-sc",5,5.12,"F",6,"cdm","control_double",5,"3vs1",2,1632,"ipad"
"150116-08-sc",5,5.12,"F",6,"cdm","control_single",6,"2vs2",2,1661,"ipad"
"150116-08-sc",5,5.12,"F",6,"cdm","inference",7,"2vs1",2,1734,"ipad"
"150116-08-sc",5,5.12,"F",6,"cdm","control_single",8,"2vs2",2,1845,"ipad"
"150116-08-sc",5,5.12,"F",6,"cdm","control_single",9,"2vs2",2,1784,"ipad"
"150116-08-sc",5,5.12,"F",6,"cdm","control_double",10,"2vs1",2,1468,"ipad"
"150116-08-sc",5,5.12,"F",6,"cdm","control_double",11,"3vs1",2,2155,"ipad"
"150116-08-sc",5,5.12,"F",6,"cdm","control_single",12,"1vs1",2,2439,"ipad"
"150116-08-sc",5,5.12,"F",6,"cdm","control_single",13,"1vs1",2,2229,"ipad"
"150116-08-sc",5,5.12,"F",6,"cdm","inference",14,"3vs1",2,2051,"ipad"
"150116-08-sc",5,5.12,"F",6,"cdm","control_single",15,"1vs1",2,1481,"ipad"
"150116-08-sc",5,5.12,"F",6,"cdm","control_double",16,"2vs1",2,1291,"ipad"
"150116-08-sc",5,5.12,"F",6,"cdm","inference",17,"3vs1",2,1795,"ipad"
"150116-08-sc",5,5.12,"F",6,"cdm","control_single",18,"1vs1",2,1118,"ipad"
"150116-09-sc",4,4.32,"F",6,"cdm","control_single",3,"2vs2",2,5585,"ipad"
"150116-09-sc",4,4.32,"F",6,"cdm","inference",4,"2vs1",2,6897,"ipad"
"150116-09-sc",4,4.32,"F",6,"cdm","control_double",5,"3vs1",2,6028,"ipad"
"150116-09-sc",4,4.32,"F",6,"cdm","control_single",6,"2vs2",2,2915,"ipad"
"150116-09-sc",4,4.32,"F",6,"cdm","inference",7,"2vs1",1,4544,"ipad"
"150116-09-sc",4,4.32,"F",6,"cdm","control_single",8,"2vs2",2,3356,"ipad"
"150116-09-sc",4,4.32,"F",6,"cdm","control_single",9,"2vs2",2,5123,"ipad"
"150116-09-sc",4,4.32,"F",6,"cdm","control_double",10,"2vs1",2,6972,"ipad"
"150116-09-sc",4,4.32,"F",6,"cdm","control_double",11,"3vs1",2,2757,"ipad"
"150116-09-sc",4,4.32,"F",6,"cdm","control_single",12,"1vs1",2,3550,"ipad"
"150116-09-sc",4,4.32,"F",6,"cdm","control_single",13,"1vs1",2,5432,"ipad"
"150116-09-sc",4,4.32,"F",6,"cdm","inference",14,"3vs1",1,8247,"ipad"
"150116-09-sc",4,4.32,"F",6,"cdm","control_single",15,"1vs1",2,2787,"ipad"
"150116-09-sc",4,4.32,"F",6,"cdm","control_double",16,"2vs1",2,3422,"ipad"
"150116-09-sc",4,4.32,"F",6,"cdm","inference",17,"3vs1",1,4592,"ipad"
"150116-09-sc",4,4.32,"F",6,"cdm","control_single",18,"1vs1",2,2067,"ipad"
"150116-10-sc",4,4.03,"F",6,"cdm","control_single",3,"2vs2",2,2264,"ipad"
"150116-10-sc",4,4.03,"F",6,"cdm","inference",4,"3vs1",2,1833,"ipad"
"150116-10-sc",4,4.03,"F",6,"cdm","control_double",5,"3vs1",2,2340,"ipad"
"150116-10-sc",4,4.03,"F",6,"cdm","control_single",6,"1vs1",2,1342,"ipad"
"150116-10-sc",4,4.03,"F",6,"cdm","inference",7,"3vs1",2,6172,"ipad"
"150116-10-sc",4,4.03,"F",6,"cdm","control_single",8,"1vs1",2,2464,"ipad"
"150116-10-sc",4,4.03,"F",6,"cdm","control_single",9,"2vs2",2,2640,"ipad"
"150116-10-sc",4,4.03,"F",6,"cdm","control_double",10,"2vs1",2,1761,"ipad"
"150116-10-sc",4,4.03,"F",6,"cdm","control_double",11,"3vs1",2,2107,"ipad"
"150116-10-sc",4,4.03,"F",6,"cdm","control_single",12,"1vs1",2,1899,"ipad"
"150116-10-sc",4,4.03,"F",6,"cdm","control_single",13,"2vs2",2,1630,"ipad"
"150116-10-sc",4,4.03,"F",6,"cdm","inference",14,"2vs1",2,1640,"ipad"
"150116-10-sc",4,4.03,"F",6,"cdm","control_single",15,"1vs1",2,2844,"ipad"
"150116-10-sc",4,4.03,"F",6,"cdm","control_double",16,"2vs1",2,1773,"ipad"
"150116-10-sc",4,4.03,"F",6,"cdm","inference",17,"2vs1",2,2402,"ipad"
"150116-10-sc",4,4.03,"F",6,"cdm","control_single",18,"2vs2",2,1753,"ipad"
"150116-11-sc",4,4.21,"M",6,"cdm","control_single",3,"2vs2",2,1595,"ipad"
"150116-11-sc",4,4.21,"M",6,"cdm","inference",4,"2vs1",2,1419,"ipad"
"150116-11-sc",4,4.21,"M",6,"cdm","control_double",5,"3vs1",2,1564,"ipad"
"150116-11-sc",4,4.21,"M",6,"cdm","control_single",6,"2vs2",2,1191,"ipad"
"150116-11-sc",4,4.21,"M",6,"cdm","inference",7,"2vs1",2,1521,"ipad"
"150116-11-sc",4,4.21,"M",6,"cdm","control_single",8,"2vs2",2,1772,"ipad"
"150116-11-sc",4,4.21,"M",6,"cdm","control_single",9,"2vs2",2,1205,"ipad"
"150116-11-sc",4,4.21,"M",6,"cdm","control_double",10,"2vs1",2,1310,"ipad"
"150116-11-sc",4,4.21,"M",6,"cdm","control_double",11,"3vs1",2,1525,"ipad"
"150116-11-sc",4,4.21,"M",6,"cdm","control_single",12,"1vs1",2,1484,"ipad"
"150116-11-sc",4,4.21,"M",6,"cdm","control_single",13,"1vs1",2,849,"ipad"
"150116-11-sc",4,4.21,"M",6,"cdm","inference",14,"3vs1",2,1144,"ipad"
"150116-11-sc",4,4.21,"M",6,"cdm","control_single",15,"1vs1",2,1186,"ipad"
"150116-11-sc",4,4.21,"M",6,"cdm","control_double",16,"2vs1",2,2150,"ipad"
"150116-11-sc",4,4.21,"M",6,"cdm","inference",17,"3vs1",2,957,"ipad"
"150116-11-sc",4,4.21,"M",6,"cdm","control_single",18,"1vs1",2,1200,"ipad"
"150116-15-sc",3,3.44,"F",6,"cdm","control_single",3,"2vs2",2,2294,"ipad"
"150116-15-sc",3,3.44,"F",6,"cdm","inference",4,"3vs1",2,3023,"ipad"
"150116-15-sc",3,3.44,"F",6,"cdm","control_double",5,"3vs1",2,2970,"ipad"
"150116-15-sc",3,3.44,"F",6,"cdm","control_single",6,"1vs1",2,2049,"ipad"
"150116-15-sc",3,3.44,"F",6,"cdm","inference",7,"3vs1",2,2529,"ipad"
"150116-15-sc",3,3.44,"F",6,"cdm","control_single",8,"1vs1",2,2829,"ipad"
"150116-15-sc",3,3.44,"F",6,"cdm","control_single",9,"2vs2",2,2601,"ipad"
"150116-15-sc",3,3.44,"F",6,"cdm","control_double",10,"2vs1",2,2995,"ipad"
"150116-15-sc",3,3.44,"F",6,"cdm","control_double",11,"3vs1",2,2355,"ipad"
"150116-15-sc",3,3.44,"F",6,"cdm","control_single",12,"1vs1",2,2265,"ipad"
"150116-15-sc",3,3.44,"F",6,"cdm","control_single",13,"2vs2",2,2214,"ipad"
"150116-15-sc",3,3.44,"F",6,"cdm","inference",14,"2vs1",2,1398,"ipad"
"150116-15-sc",3,3.44,"F",6,"cdm","control_single",15,"1vs1",2,6291,"ipad"
"150116-16-sc",3,3.93,"F",6,"cdm","control_single",3,"2vs2",2,2699,"ipad"
"150116-16-sc",3,3.93,"F",6,"cdm","inference",4,"2vs1",2,2426,"ipad"
"150116-16-sc",3,3.93,"F",6,"cdm","control_double",5,"3vs1",2,2318,"ipad"
"150116-16-sc",3,3.93,"F",6,"cdm","control_single",6,"2vs2",2,1727,"ipad"
"150116-16-sc",3,3.93,"F",6,"cdm","inference",7,"2vs1",2,1641,"ipad"
"150116-16-sc",3,3.93,"F",6,"cdm","control_single",8,"2vs2",2,3939,"ipad"
"150116-16-sc",3,3.93,"F",6,"cdm","control_single",9,"2vs2",2,2120,"ipad"
"150116-16-sc",3,3.93,"F",6,"cdm","control_double",10,"2vs1",2,1561,"ipad"
"150116-16-sc",3,3.93,"F",6,"cdm","control_double",11,"3vs1",2,2646,"ipad"
"150116-16-sc",3,3.93,"F",6,"cdm","control_single",12,"1vs1",2,1384,"ipad"
"150116-16-sc",3,3.93,"F",6,"cdm","control_single",13,"1vs1",2,1260,"ipad"
"150116-16-sc",3,3.93,"F",6,"cdm","inference",14,"3vs1",2,1978,"ipad"
"150116-16-sc",3,3.93,"F",6,"cdm","control_single",15,"1vs1",2,1672,"ipad"
"150116-16-sc",3,3.93,"F",6,"cdm","control_double",16,"2vs1",2,2268,"ipad"
"150116-16-sc",3,3.93,"F",6,"cdm","inference",17,"3vs1",2,1914,"ipad"
"150116-16-sc",3,3.93,"F",6,"cdm","control_single",18,"1vs1",2,1852,"ipad"
"150116-17-sc",3,3.78,"M",6,"cdm","control_single",3,"2vs2",2,1662,"ipad"
"150116-17-sc",3,3.78,"M",6,"cdm","inference",4,"3vs1",2,1505,"ipad"
"150116-17-sc",3,3.78,"M",6,"cdm","control_double",5,"3vs1",2,2177,"ipad"
"150116-17-sc",3,3.78,"M",6,"cdm","control_single",6,"1vs1",2,2665,"ipad"
"150116-17-sc",3,3.78,"M",6,"cdm","inference",7,"3vs1",1,3450,"ipad"
"150116-17-sc",3,3.78,"M",6,"cdm","control_single",8,"1vs1",2,1892,"ipad"
"150116-17-sc",3,3.78,"M",6,"cdm","control_single",9,"2vs2",2,1756,"ipad"
"150116-17-sc",3,3.78,"M",6,"cdm","control_double",10,"2vs1",2,1767,"ipad"
"150116-17-sc",3,3.78,"M",6,"cdm","control_double",11,"3vs1",2,1755,"ipad"
"150116-17-sc",3,3.78,"M",6,"cdm","control_single",12,"1vs1",2,1942,"ipad"
"150116-17-sc",3,3.78,"M",6,"cdm","control_single",13,"2vs2",2,1805,"ipad"
"150116-17-sc",3,3.78,"M",6,"cdm","inference",14,"2vs1",2,1933,"ipad"
"150116-17-sc",3,3.78,"M",6,"cdm","control_single",15,"1vs1",2,924,"ipad"
"150116-17-sc",3,3.78,"M",6,"cdm","control_double",16,"2vs1",2,2465,"ipad"
"150116-17-sc",3,3.78,"M",6,"cdm","inference",17,"2vs1",2,1348,"ipad"
"150116-17-sc",3,3.78,"M",6,"cdm","control_single",18,"2vs2",2,2743,"ipad"
"150116-18-sc",2,2.76,"F",6,"cdm","control_single",3,"2vs2",2,1795,"ipad"
"150116-18-sc",2,2.76,"F",6,"cdm","inference",4,"2vs1",1,1589,"ipad"
"150116-18-sc",2,2.76,"F",6,"cdm","control_double",5,"3vs1",2,5282,"ipad"
"150116-18-sc",2,2.76,"F",6,"cdm","control_single",6,"2vs2",2,1681,"ipad"
"150116-18-sc",2,2.76,"F",6,"cdm","inference",7,"2vs1",1,1461,"ipad"
"150116-18-sc",2,2.76,"F",6,"cdm","control_single",8,"2vs2",2,2115,"ipad"
"150116-18-sc",2,2.76,"F",6,"cdm","control_single",9,"2vs2",2,1115,"ipad"
"150116-18-sc",2,2.76,"F",6,"cdm","control_double",10,"2vs1",2,1702,"ipad"
"150116-18-sc",2,2.76,"F",6,"cdm","control_double",11,"3vs1",2,1643,"ipad"
"150116-18-sc",2,2.76,"F",6,"cdm","control_single",12,"1vs1",2,1614,"ipad"
"150116-18-sc",2,2.76,"F",6,"cdm","control_single",13,"1vs1",2,2013,"ipad"
"150116-18-sc",2,2.76,"F",6,"cdm","inference",14,"3vs1",2,1576,"ipad"
"150116-18-sc",2,2.76,"F",6,"cdm","control_single",15,"1vs1",2,7377,"ipad"
"150116-18-sc",2,2.76,"F",6,"cdm","control_double",16,"2vs1",2,1826,"ipad"
"150116-18-sc",2,2.76,"F",6,"cdm","inference",17,"3vs1",1,2091,"ipad"
"150116-18-sc",2,2.76,"F",6,"cdm","control_single",18,"1vs1",2,1347,"ipad"
"150116-19-sc",3,3.03,"F",5,"cdm","control_single",3,"2vs2",2,1909,"ipad"
"150116-19-sc",3,3.03,"F",5,"cdm","inference",4,"3vs1",2,2084,"ipad"
"150116-19-sc",3,3.03,"F",5,"cdm","control_double",5,"3vs1",2,4531,"ipad"
"150116-19-sc",3,3.03,"F",5,"cdm","control_single",6,"1vs1",2,1785,"ipad"
"150116-19-sc",3,3.03,"F",5,"cdm","inference",7,"3vs1",2,2763,"ipad"
"150116-19-sc",3,3.03,"F",5,"cdm","control_single",8,"1vs1",2,7068,"ipad"
"150116-19-sc",3,3.03,"F",5,"cdm","control_single",9,"2vs2",2,1345,"ipad"
"150116-19-sc",3,3.03,"F",5,"cdm","control_double",10,"2vs1",2,2188,"ipad"
"150116-19-sc",3,3.03,"F",5,"cdm","control_double",11,"3vs1",2,2411,"ipad"
"150116-19-sc",3,3.03,"F",5,"cdm","control_single",12,"1vs1",2,1550,"ipad"
"150116-19-sc",3,3.03,"F",5,"cdm","control_single",13,"2vs2",2,2345,"ipad"
"150116-19-sc",3,3.03,"F",5,"cdm","inference",14,"2vs1",2,1001,"ipad"
"150116-19-sc",3,3.03,"F",5,"cdm","control_single",15,"1vs1",1,1044,"ipad"
"150116-19-sc",3,3.03,"F",5,"cdm","control_double",16,"2vs1",2,1731,"ipad"
"150116-19-sc",3,3.03,"F",5,"cdm","inference",17,"2vs1",2,1675,"ipad"
"150116-19-sc",3,3.03,"F",5,"cdm","control_single",18,"2vs2",2,1815,"ipad"
"150116-20-sc",4,4.05,"M",6,"cdm","control_single",3,"2vs2",2,2373,"ipad"
"150116-20-sc",4,4.05,"M",6,"cdm","inference",4,"2vs1",1,12271,"ipad"
"150116-20-sc",4,4.05,"M",6,"cdm","control_double",5,"3vs1",2,9599,"ipad"
"150116-20-sc",4,4.05,"M",6,"cdm","control_single",6,"2vs2",2,6383,"ipad"
"150116-20-sc",4,4.05,"M",6,"cdm","inference",7,"2vs1",1,10469,"ipad"
"150116-20-sc",4,4.05,"M",6,"cdm","control_single",8,"2vs2",2,8767,"ipad"
"150116-20-sc",4,4.05,"M",6,"cdm","control_single",9,"2vs2",2,2032,"ipad"
"150116-20-sc",4,4.05,"M",6,"cdm","control_double",10,"2vs1",2,2158,"ipad"
"150116-20-sc",4,4.05,"M",6,"cdm","control_double",11,"3vs1",2,2528,"ipad"
"150116-20-sc",4,4.05,"M",6,"cdm","control_single",12,"1vs1",2,2344,"ipad"
"150116-20-sc",4,4.05,"M",6,"cdm","control_single",13,"1vs1",1,6751,"ipad"
"150116-20-sc",4,4.05,"M",6,"cdm","inference",14,"3vs1",2,1960,"ipad"
"150116-20-sc",4,4.05,"M",6,"cdm","control_single",15,"1vs1",2,6793,"ipad"
"150116-20-sc",4,4.05,"M",6,"cdm","control_double",16,"2vs1",1,5033,"ipad"
"150116-20-sc",4,4.05,"M",6,"cdm","inference",17,"3vs1",1,6411,"ipad"
"150116-20-sc",4,4.05,"M",6,"cdm","control_single",18,"1vs1",2,626,"ipad"
"150116-21-sc",4,4.72,"M",6,"cdm","control_single",3,"2vs2",2,2726,"ipad"
"150116-21-sc",4,4.72,"M",6,"cdm","inference",4,"3vs1",2,1851,"ipad"
"150116-21-sc",4,4.72,"M",6,"cdm","control_double",5,"3vs1",2,1299,"ipad"
"150116-21-sc",4,4.72,"M",6,"cdm","control_single",6,"1vs1",2,3450,"ipad"
"150116-21-sc",4,4.72,"M",6,"cdm","inference",7,"3vs1",2,3377,"ipad"
"150116-21-sc",4,4.72,"M",6,"cdm","control_single",8,"1vs1",2,1523,"ipad"
"150116-21-sc",4,4.72,"M",6,"cdm","control_single",9,"2vs2",2,2428,"ipad"
"150116-21-sc",4,4.72,"M",6,"cdm","control_double",10,"2vs1",2,3656,"ipad"
"150116-21-sc",4,4.72,"M",6,"cdm","control_double",11,"3vs1",2,1499,"ipad"
"150116-21-sc",4,4.72,"M",6,"cdm","control_single",12,"1vs1",2,1608,"ipad"
"150116-21-sc",4,4.72,"M",6,"cdm","control_single",13,"2vs2",2,2912,"ipad"
"150116-21-sc",4,4.72,"M",6,"cdm","inference",14,"2vs1",2,1131,"ipad"
"150116-21-sc",4,4.72,"M",6,"cdm","control_single",15,"1vs1",2,1222,"ipad"
"150116-21-sc",4,4.72,"M",6,"cdm","control_double",16,"2vs1",2,1101,"ipad"
"150116-21-sc",4,4.72,"M",6,"cdm","inference",17,"2vs1",2,1698,"ipad"
"150116-21-sc",4,4.72,"M",6,"cdm","control_single",18,"2vs2",2,1672,"ipad"
"150116-22-sc",2,2.47,"F",6,"cdm","control_single",3,"2vs2",2,2340,"ipad"
"150116-22-sc",2,2.47,"F",6,"cdm","inference",4,"2vs1",1,4203,"ipad"
"150116-22-sc",2,2.47,"F",6,"cdm","control_double",5,"3vs1",2,1740,"ipad"
"150116-22-sc",2,2.47,"F",6,"cdm","control_single",6,"2vs2",2,1331,"ipad"
"150116-22-sc",2,2.47,"F",6,"cdm","inference",7,"2vs1",2,2043,"ipad"
"150116-22-sc",2,2.47,"F",6,"cdm","control_single",8,"2vs2",2,2398,"ipad"
"150116-22-sc",2,2.47,"F",6,"cdm","control_single",9,"2vs2",2,4761,"ipad"
"150116-22-sc",2,2.47,"F",6,"cdm","control_double",10,"2vs1",1,2449,"ipad"
"150116-22-sc",2,2.47,"F",6,"cdm","control_double",11,"3vs1",2,3448,"ipad"
"150116-22-sc",2,2.47,"F",6,"cdm","control_single",12,"1vs1",2,1800,"ipad"
"150116-22-sc",2,2.47,"F",6,"cdm","control_single",13,"1vs1",2,7858,"ipad"
"150116-22-sc",2,2.47,"F",6,"cdm","inference",14,"3vs1",2,2008,"ipad"
"150116-22-sc",2,2.47,"F",6,"cdm","control_single",15,"1vs1",2,1880,"ipad"
"150116-22-sc",2,2.47,"F",6,"cdm","control_double",16,"2vs1",2,2627,"ipad"
"150116-22-sc",2,2.47,"F",6,"cdm","inference",17,"3vs1",2,2274,"ipad"
"150116-22-sc",2,2.47,"F",6,"cdm","control_single",18,"1vs1",2,2972,"ipad"
"150120-01-sc",4,4.59,"F",6,"bing","control_single",3,"2vs2",2,2243,"ipad"
"150120-01-sc",4,4.59,"F",6,"bing","inference",4,"2vs1",2,1840,"ipad"
"150120-01-sc",4,4.59,"F",6,"bing","control_double",5,"3vs1",2,2692,"ipad"
"150120-01-sc",4,4.59,"F",6,"bing","control_single",6,"2vs2",2,1503,"ipad"
"150120-01-sc",4,4.59,"F",6,"bing","inference",7,"2vs1",2,2222,"ipad"
"150120-01-sc",4,4.59,"F",6,"bing","control_single",8,"2vs2",2,2253,"ipad"
"150120-01-sc",4,4.59,"F",6,"bing","control_single",9,"2vs2",2,1361,"ipad"
"150120-01-sc",4,4.59,"F",6,"bing","control_double",10,"2vs1",2,3006,"ipad"
"150120-01-sc",4,4.59,"F",6,"bing","control_double",11,"3vs1",1,2571,"ipad"
"150120-01-sc",4,4.59,"F",6,"bing","control_single",12,"1vs1",2,3942,"ipad"
"150120-01-sc",4,4.59,"F",6,"bing","control_single",13,"1vs1",2,3172,"ipad"
"150120-01-sc",4,4.59,"F",6,"bing","inference",14,"3vs1",2,2083,"ipad"
"150120-01-sc",4,4.59,"F",6,"bing","control_single",15,"1vs1",2,1552,"ipad"
"150120-01-sc",4,4.59,"F",6,"bing","control_double",16,"2vs1",1,3168,"ipad"
"150120-01-sc",4,4.59,"F",6,"bing","inference",17,"3vs1",2,2409,"ipad"
"150120-01-sc",4,4.59,"F",6,"bing","control_single",18,"1vs1",1,1269,"ipad"
"150120-03-sc",4,4.01,"M",6,"bing","control_single",3,"2vs2",2,1812,"ipad"
"150120-03-sc",4,4.01,"M",6,"bing","inference",4,"3vs1",2,1463,"ipad"
"150120-03-sc",4,4.01,"M",6,"bing","control_double",5,"3vs1",2,3009,"ipad"
"150120-03-sc",4,4.01,"M",6,"bing","control_single",6,"1vs1",2,1988,"ipad"
"150120-03-sc",4,4.01,"M",6,"bing","inference",7,"3vs1",2,5091,"ipad"
"150120-03-sc",4,4.01,"M",6,"bing","control_single",8,"1vs1",2,1730,"ipad"
"150120-03-sc",4,4.01,"M",6,"bing","control_single",9,"2vs2",2,1882,"ipad"
"150120-03-sc",4,4.01,"M",6,"bing","control_double",10,"2vs1",2,2097,"ipad"
"150120-03-sc",4,4.01,"M",6,"bing","control_double",11,"3vs1",2,1747,"ipad"
"150120-03-sc",4,4.01,"M",6,"bing","control_single",12,"1vs1",2,1377,"ipad"
"150120-03-sc",4,4.01,"M",6,"bing","control_single",13,"2vs2",2,2660,"ipad"
"150120-03-sc",4,4.01,"M",6,"bing","inference",14,"2vs1",2,1629,"ipad"
"150120-03-sc",4,4.01,"M",6,"bing","control_single",15,"1vs1",2,1495,"ipad"
"150120-03-sc",4,4.01,"M",6,"bing","control_double",16,"2vs1",2,1533,"ipad"
"150120-03-sc",4,4.01,"M",6,"bing","inference",17,"2vs1",1,2040,"ipad"
"150120-03-sc",4,4.01,"M",6,"bing","control_single",18,"2vs2",2,1742,"ipad"
"150120-04-sc",4,4.67,"M",6,"bing","control_single",3,"2vs2",2,2152,"ipad"
"150120-04-sc",4,4.67,"M",6,"bing","inference",4,"2vs1",2,2459,"ipad"
"150120-04-sc",4,4.67,"M",6,"bing","control_double",5,"3vs1",1,1487,"ipad"
"150120-04-sc",4,4.67,"M",6,"bing","control_single",6,"2vs2",1,1185,"ipad"
"150120-04-sc",4,4.67,"M",6,"bing","inference",7,"2vs1",2,2724,"ipad"
"150120-04-sc",4,4.67,"M",6,"bing","control_single",8,"2vs2",2,2077,"ipad"
"150120-04-sc",4,4.67,"M",6,"bing","control_single",9,"2vs2",2,649,"ipad"
"150120-04-sc",4,4.67,"M",6,"bing","control_double",10,"2vs1",2,1769,"ipad"
"150120-04-sc",4,4.67,"M",6,"bing","control_double",11,"3vs1",2,2379,"ipad"
"150120-04-sc",4,4.67,"M",6,"bing","control_single",12,"1vs1",2,1417,"ipad"
"150120-04-sc",4,4.67,"M",6,"bing","control_single",13,"1vs1",2,1194,"ipad"
"150120-04-sc",4,4.67,"M",6,"bing","inference",14,"3vs1",2,1355,"ipad"
"150120-04-sc",4,4.67,"M",6,"bing","control_single",15,"1vs1",2,1049,"ipad"
"150120-04-sc",4,4.67,"M",6,"bing","control_double",16,"2vs1",2,1024,"ipad"
"150120-04-sc",4,4.67,"M",6,"bing","inference",17,"3vs1",2,1417,"ipad"
"150120-04-sc",4,4.67,"M",6,"bing","control_single",18,"1vs1",2,994,"ipad"
"150120-05-sc",3,3.85,"M",6,"bing","control_single",3,"2vs2",2,6768,"ipad"
"150120-05-sc",3,3.85,"M",6,"bing","inference",4,"2vs1",2,3559,"ipad"
"150120-05-sc",3,3.85,"M",6,"bing","control_double",5,"3vs1",2,3378,"ipad"
"150120-05-sc",3,3.85,"M",6,"bing","control_single",6,"2vs2",2,2371,"ipad"
"150120-05-sc",3,3.85,"M",6,"bing","inference",7,"2vs1",2,3165,"ipad"
"150120-05-sc",3,3.85,"M",6,"bing","control_single",8,"2vs2",2,2720,"ipad"
"150120-05-sc",3,3.85,"M",6,"bing","control_single",9,"2vs2",2,3924,"ipad"
"150120-05-sc",3,3.85,"M",6,"bing","control_double",10,"2vs1",2,2384,"ipad"
"150120-05-sc",3,3.85,"M",6,"bing","control_double",11,"3vs1",2,2412,"ipad"
"150120-05-sc",3,3.85,"M",6,"bing","control_single",12,"1vs1",2,2864,"ipad"
"150120-05-sc",3,3.85,"M",6,"bing","control_single",13,"1vs1",2,2280,"ipad"
"150120-05-sc",3,3.85,"M",6,"bing","inference",14,"3vs1",2,2181,"ipad"
"150120-05-sc",3,3.85,"M",6,"bing","control_single",15,"1vs1",2,2217,"ipad"
"150120-05-sc",3,3.85,"M",6,"bing","control_double",16,"2vs1",2,2465,"ipad"
"150120-05-sc",3,3.85,"M",6,"bing","inference",17,"3vs1",1,4096,"ipad"
"150120-05-sc",3,3.85,"M",6,"bing","control_single",18,"1vs1",2,3570,"ipad"
"150120-06-sc",4,4.67,"M",6,"bing","control_single",3,"2vs2",2,1469,"ipad"
"150120-06-sc",4,4.67,"M",6,"bing","inference",4,"3vs1",2,2563,"ipad"
"150120-06-sc",4,4.67,"M",6,"bing","control_double",5,"3vs1",2,2313,"ipad"
"150120-06-sc",4,4.67,"M",6,"bing","control_single",6,"1vs1",2,1132,"ipad"
"150120-06-sc",4,4.67,"M",6,"bing","inference",7,"3vs1",2,5311,"ipad"
"150120-06-sc",4,4.67,"M",6,"bing","control_single",8,"1vs1",2,1637,"ipad"
"150120-06-sc",4,4.67,"M",6,"bing","control_single",9,"2vs2",2,1523,"ipad"
"150120-06-sc",4,4.67,"M",6,"bing","control_double",10,"2vs1",2,2188,"ipad"
"150120-06-sc",4,4.67,"M",6,"bing","control_double",11,"3vs1",2,2040,"ipad"
"150120-06-sc",4,4.67,"M",6,"bing","control_single",12,"1vs1",2,1504,"ipad"
"150120-06-sc",4,4.67,"M",6,"bing","control_single",13,"2vs2",2,1815,"ipad"
"150120-06-sc",4,4.67,"M",6,"bing","inference",14,"2vs1",2,1649,"ipad"
"150120-06-sc",4,4.67,"M",6,"bing","control_single",15,"1vs1",2,1218,"ipad"
"150120-06-sc",4,4.67,"M",6,"bing","control_double",16,"2vs1",2,4086,"ipad"
"150120-06-sc",4,4.67,"M",6,"bing","inference",17,"2vs1",2,1225,"ipad"
"150120-06-sc",4,4.67,"M",6,"bing","control_single",18,"2vs2",2,1746,"ipad"
"150122-01-sc",4,4.1,"M",6,"bing","control_single",3,"2vs2",2,2740,"ipad"
"150122-01-sc",4,4.1,"M",6,"bing","inference",4,"3vs1",2,3322,"ipad"
"150122-01-sc",4,4.1,"M",6,"bing","control_double",5,"3vs1",2,4867,"ipad"
"150122-01-sc",4,4.1,"M",6,"bing","control_single",6,"1vs1",2,1461,"ipad"
"150122-01-sc",4,4.1,"M",6,"bing","inference",7,"3vs1",2,6829,"ipad"
"150122-01-sc",4,4.1,"M",6,"bing","control_single",8,"1vs1",2,2527,"ipad"
"150122-01-sc",4,4.1,"M",6,"bing","control_single",9,"2vs2",2,2202,"ipad"
"150122-01-sc",4,4.1,"M",6,"bing","control_double",10,"2vs1",2,2251,"ipad"
"150122-01-sc",4,4.1,"M",6,"bing","control_double",11,"3vs1",2,2209,"ipad"
"150122-01-sc",4,4.1,"M",6,"bing","control_single",12,"1vs1",2,2107,"ipad"
"150122-01-sc",4,4.1,"M",6,"bing","control_single",13,"2vs2",2,1681,"ipad"
"150122-01-sc",4,4.1,"M",6,"bing","inference",14,"2vs1",2,2417,"ipad"
"150122-01-sc",4,4.1,"M",6,"bing","control_single",15,"1vs1",2,1373,"ipad"
"150122-01-sc",4,4.1,"M",6,"bing","control_double",16,"2vs1",2,1395,"ipad"
"150122-01-sc",4,4.1,"M",6,"bing","inference",17,"2vs1",2,1984,"ipad"
"150122-01-sc",4,4.1,"M",6,"bing","control_single",18,"2vs2",2,2259,"ipad"
"150122-02-sc",4,4.28,"M",6,"bing","control_single",3,"2vs2",2,2493,"ipad"
"150122-02-sc",4,4.28,"M",6,"bing","inference",4,"2vs1",2,8764,"ipad"
"150122-02-sc",4,4.28,"M",6,"bing","control_double",5,"3vs1",2,2005,"ipad"
"150122-02-sc",4,4.28,"M",6,"bing","control_single",6,"2vs2",2,1650,"ipad"
"150122-02-sc",4,4.28,"M",6,"bing","inference",7,"2vs1",2,2622,"ipad"
"150122-02-sc",4,4.28,"M",6,"bing","control_single",8,"2vs2",2,2230,"ipad"
"150122-02-sc",4,4.28,"M",6,"bing","control_single",9,"2vs2",2,2059,"ipad"
"150122-02-sc",4,4.28,"M",6,"bing","control_double",10,"2vs1",2,2524,"ipad"
"150122-02-sc",4,4.28,"M",6,"bing","control_double",11,"3vs1",2,1789,"ipad"
"150122-02-sc",4,4.28,"M",6,"bing","control_single",12,"1vs1",2,2407,"ipad"
"150122-02-sc",4,4.28,"M",6,"bing","control_single",13,"1vs1",2,1670,"ipad"
"150122-02-sc",4,4.28,"M",6,"bing","inference",14,"3vs1",2,2108,"ipad"
"150122-02-sc",4,4.28,"M",6,"bing","control_single",15,"1vs1",2,3553,"ipad"
"150122-02-sc",4,4.28,"M",6,"bing","control_double",16,"2vs1",2,2172,"ipad"
"150122-02-sc",4,4.28,"M",6,"bing","inference",17,"3vs1",2,2967,"ipad"
"150122-02-sc",4,4.28,"M",6,"bing","control_single",18,"1vs1",2,1847,"ipad"
"150122-03-sc",3,3.92,"M",6,"bing","control_single",3,"2vs2",2,2436,"ipad"
"150122-03-sc",3,3.92,"M",6,"bing","inference",4,"3vs1",2,3002,"ipad"
"150122-03-sc",3,3.92,"M",6,"bing","control_double",5,"3vs1",2,3313,"ipad"
"150122-03-sc",3,3.92,"M",6,"bing","control_single",6,"1vs1",2,7768,"ipad"
"150122-03-sc",3,3.92,"M",6,"bing","inference",7,"3vs1",2,9019,"ipad"
"150122-03-sc",3,3.92,"M",6,"bing","control_single",8,"1vs1",2,2404,"ipad"
"150122-03-sc",3,3.92,"M",6,"bing","control_single",9,"2vs2",2,3186,"ipad"
"150122-03-sc",3,3.92,"M",6,"bing","control_double",10,"2vs1",2,3443,"ipad"
"150122-03-sc",3,3.92,"M",6,"bing","control_double",11,"3vs1",2,10206,"ipad"
"150122-03-sc",3,3.92,"M",6,"bing","control_single",12,"1vs1",2,2578,"ipad"
"150122-03-sc",3,3.92,"M",6,"bing","control_single",13,"2vs2",2,2594,"ipad"
"150122-03-sc",3,3.92,"M",6,"bing","inference",14,"2vs1",1,7724,"ipad"
"150122-03-sc",3,3.92,"M",6,"bing","control_single",15,"1vs1",2,1714,"ipad"
"150122-03-sc",3,3.92,"M",6,"bing","control_double",16,"2vs1",2,3515,"ipad"
"150122-03-sc",3,3.92,"M",6,"bing","inference",17,"2vs1",2,2729,"ipad"
"150122-03-sc",3,3.92,"M",6,"bing","control_single",18,"2vs2",2,2032,"ipad"
"150122-04-sc",4,4.27,"M",6,"bing","control_single",3,"2vs2",2,2091,"ipad"
"150122-04-sc",4,4.27,"M",6,"bing","inference",4,"2vs1",2,3008,"ipad"
"150122-04-sc",4,4.27,"M",6,"bing","control_double",5,"3vs1",2,1571,"ipad"
"150122-04-sc",4,4.27,"M",6,"bing","control_single",6,"2vs2",2,1670,"ipad"
"150122-04-sc",4,4.27,"M",6,"bing","inference",7,"2vs1",1,5524,"ipad"
"150122-04-sc",4,4.27,"M",6,"bing","control_single",8,"2vs2",2,2439,"ipad"
"150122-04-sc",4,4.27,"M",6,"bing","control_single",9,"2vs2",2,1890,"ipad"
"150122-04-sc",4,4.27,"M",6,"bing","control_double",10,"2vs1",2,1560,"ipad"
"150122-04-sc",4,4.27,"M",6,"bing","control_double",11,"3vs1",2,1997,"ipad"
"150122-04-sc",4,4.27,"M",6,"bing","control_single",12,"1vs1",2,1401,"ipad"
"150122-04-sc",4,4.27,"M",6,"bing","control_single",13,"1vs1",2,2599,"ipad"
"150122-04-sc",4,4.27,"M",6,"bing","inference",14,"3vs1",2,1821,"ipad"
"150122-04-sc",4,4.27,"M",6,"bing","control_single",15,"1vs1",2,4348,"ipad"
"150122-04-sc",4,4.27,"M",6,"bing","control_double",16,"2vs1",2,3162,"ipad"
"150122-04-sc",4,4.27,"M",6,"bing","inference",17,"3vs1",2,2170,"ipad"
"150122-04-sc",4,4.27,"M",6,"bing","control_single",18,"1vs1",2,1828,"ipad"
"150122-05-sc",4,4.17,"F",6,"bing","control_single",3,"2vs2",2,3050,"ipad"
"150122-05-sc",4,4.17,"F",6,"bing","inference",4,"3vs1",2,1990,"ipad"
"150122-05-sc",4,4.17,"F",6,"bing","control_double",5,"3vs1",2,3187,"ipad"
"150122-05-sc",4,4.17,"F",6,"bing","control_single",6,"1vs1",2,1976,"ipad"
"150122-05-sc",4,4.17,"F",6,"bing","inference",7,"3vs1",2,1445,"ipad"
"150122-05-sc",4,4.17,"F",6,"bing","control_single",8,"1vs1",2,2541,"ipad"
"150122-05-sc",4,4.17,"F",6,"bing","control_single",9,"2vs2",2,2187,"ipad"
"150122-05-sc",4,4.17,"F",6,"bing","control_double",10,"2vs1",2,2023,"ipad"
"150122-05-sc",4,4.17,"F",6,"bing","control_double",11,"3vs1",2,1819,"ipad"
"150122-05-sc",4,4.17,"F",6,"bing","control_single",12,"1vs1",2,2257,"ipad"
"150122-05-sc",4,4.17,"F",6,"bing","control_single",13,"2vs2",2,1787,"ipad"
"150122-05-sc",4,4.17,"F",6,"bing","inference",14,"2vs1",2,3517,"ipad"
"150122-05-sc",4,4.17,"F",6,"bing","control_single",15,"1vs1",2,1506,"ipad"
"150122-05-sc",4,4.17,"F",6,"bing","control_double",16,"2vs1",2,2532,"ipad"
"150122-05-sc",4,4.17,"F",6,"bing","inference",17,"2vs1",2,2435,"ipad"
"150122-05-sc",4,4.17,"F",6,"bing","control_single",18,"2vs2",2,1392,"ipad"
"150129-01-sc",4,4.84,"F",6,"bing","control_single",3,"2vs2",2,2200,"ipad"
"150129-01-sc",4,4.84,"F",6,"bing","inference",4,"2vs1",2,2702,"ipad"
"150129-01-sc",4,4.84,"F",6,"bing","control_double",5,"3vs1",2,2704,"ipad"
"150129-01-sc",4,4.84,"F",6,"bing","control_single",6,"2vs2",2,1439,"ipad"
"150129-01-sc",4,4.84,"F",6,"bing","inference",7,"2vs1",2,2122,"ipad"
"150129-01-sc",4,4.84,"F",6,"bing","control_single",8,"2vs2",2,2873,"ipad"
"150129-01-sc",4,4.84,"F",6,"bing","control_single",9,"2vs2",2,1726,"ipad"
"150129-01-sc",4,4.84,"F",6,"bing","control_double",10,"2vs1",2,1392,"ipad"
"150129-01-sc",4,4.84,"F",6,"bing","control_double",11,"3vs1",2,2094,"ipad"
"150129-01-sc",4,4.84,"F",6,"bing","control_single",12,"1vs1",2,2034,"ipad"
"150129-01-sc",4,4.84,"F",6,"bing","control_single",13,"1vs1",2,1782,"ipad"
"150129-01-sc",4,4.84,"F",6,"bing","inference",14,"3vs1",2,2054,"ipad"
"150129-01-sc",4,4.84,"F",6,"bing","control_single",15,"1vs1",2,1638,"ipad"
"150129-01-sc",4,4.84,"F",6,"bing","control_double",16,"2vs1",1,4902,"ipad"
"150129-01-sc",4,4.84,"F",6,"bing","inference",17,"3vs1",2,1683,"ipad"
"150129-01-sc",4,4.84,"F",6,"bing","control_single",18,"1vs1",2,2881,"ipad"
"150129-02-sc",4,4.02,"M",6,"bing","control_single",3,"2vs2",2,2679,"ipad"
"150129-02-sc",4,4.02,"M",6,"bing","inference",4,"3vs1",2,3495,"ipad"
"150129-02-sc",4,4.02,"M",6,"bing","control_double",5,"3vs1",2,3460,"ipad"
"150129-02-sc",4,4.02,"M",6,"bing","control_single",6,"1vs1",2,2577,"ipad"
"150129-02-sc",4,4.02,"M",6,"bing","inference",7,"3vs1",2,3056,"ipad"
"150129-02-sc",4,4.02,"M",6,"bing","control_single",8,"1vs1",2,3259,"ipad"
"150129-02-sc",4,4.02,"M",6,"bing","control_single",9,"2vs2",2,3254,"ipad"
"150129-02-sc",4,4.02,"M",6,"bing","control_double",10,"2vs1",2,3218,"ipad"
"150129-02-sc",4,4.02,"M",6,"bing","control_double",11,"3vs1",2,6913,"ipad"
"150129-02-sc",4,4.02,"M",6,"bing","control_single",12,"1vs1",2,2600,"ipad"
"150129-02-sc",4,4.02,"M",6,"bing","control_single",13,"2vs2",2,3095,"ipad"
"150129-02-sc",4,4.02,"M",6,"bing","inference",14,"2vs1",2,2321,"ipad"
"150129-02-sc",4,4.02,"M",6,"bing","control_single",15,"1vs1",2,4085,"ipad"
"150129-02-sc",4,4.02,"M",6,"bing","control_double",16,"2vs1",2,2171,"ipad"
"150129-02-sc",4,4.02,"M",6,"bing","inference",17,"2vs1",2,2084,"ipad"
"150129-02-sc",4,4.02,"M",6,"bing","control_single",18,"2vs2",2,2431,"ipad"
"150420-02-sc",3,3.88,"M",4,"bing","control_single",3,"2vs2",2,4331,"ipad"
"150420-02-sc",3,3.88,"M",4,"bing","inference",4,"3vs1",1,1638,"ipad"
"150420-02-sc",3,3.88,"M",4,"bing","control_double",5,"3vs1",2,5366,"ipad"
"150420-02-sc",3,3.88,"M",4,"bing","control_single",6,"1vs1",2,1752,"ipad"
"150420-02-sc",3,3.88,"M",4,"bing","inference",7,"3vs1",2,5381,"ipad"
"150420-02-sc",3,3.88,"M",4,"bing","control_single",8,"1vs1",2,3604,"ipad"
"150420-02-sc",3,3.88,"M",4,"bing","control_single",9,"2vs2",2,2553,"ipad"
"150420-02-sc",3,3.88,"M",4,"bing","control_double",10,"2vs1",2,2258,"ipad"
"150420-02-sc",3,3.88,"M",4,"bing","control_double",11,"3vs1",2,1859,"ipad"
"150420-02-sc",3,3.88,"M",4,"bing","control_single",12,"1vs1",2,2008,"ipad"
"150420-02-sc",3,3.88,"M",4,"bing","control_single",13,"2vs2",2,2230,"ipad"
"150420-02-sc",3,3.88,"M",4,"bing","inference",14,"2vs1",2,7521,"ipad"
"150420-02-sc",3,3.88,"M",4,"bing","control_single",15,"1vs1",2,1711,"ipad"
"150420-02-sc",3,3.88,"M",4,"bing","control_double",16,"2vs1",2,1984,"ipad"
"150420-02-sc",3,3.88,"M",4,"bing","inference",17,"2vs1",2,2423,"ipad"
"150420-02-sc",3,3.88,"M",4,"bing","control_single",18,"2vs2",2,2825,"ipad"
"150420-03-sc",5,5.35,"F",6,"bing","control_single",3,"2vs2",2,1519,"ipad"
"150420-03-sc",5,5.35,"F",6,"bing","inference",4,"3vs1",2,2663,"ipad"
"150420-03-sc",5,5.35,"F",6,"bing","control_double",5,"3vs1",1,2458,"ipad"
"150420-03-sc",5,5.35,"F",6,"bing","control_single",6,"1vs1",2,1069,"ipad"
"150420-03-sc",5,5.35,"F",6,"bing","inference",7,"3vs1",2,1211,"ipad"
"150420-03-sc",5,5.35,"F",6,"bing","control_single",8,"1vs1",2,1909,"ipad"
"150420-03-sc",5,5.35,"F",6,"bing","control_single",9,"2vs2",2,1790,"ipad"
"150420-03-sc",5,5.35,"F",6,"bing","control_double",10,"2vs1",2,2256,"ipad"
"150420-03-sc",5,5.35,"F",6,"bing","control_double",11,"3vs1",2,1504,"ipad"
"150420-03-sc",5,5.35,"F",6,"bing","control_single",12,"1vs1",2,1456,"ipad"
"150420-03-sc",5,5.35,"F",6,"bing","control_single",13,"2vs2",2,1535,"ipad"
"150420-03-sc",5,5.35,"F",6,"bing","inference",14,"2vs1",2,1274,"ipad"
"150420-03-sc",5,5.35,"F",6,"bing","control_single",15,"1vs1",2,1327,"ipad"
"150420-03-sc",5,5.35,"F",6,"bing","control_double",16,"2vs1",2,1469,"ipad"
"150420-03-sc",5,5.35,"F",6,"bing","inference",17,"2vs1",2,1837,"ipad"
"150420-03-sc",5,5.35,"F",6,"bing","control_single",18,"2vs2",2,1860,"ipad"
"150420-04-sc",5,5.36,"M",6,"bing","control_single",3,"2vs2",1,2200,"ipad"
"150420-04-sc",5,5.36,"M",6,"bing","inference",4,"3vs1",2,2422,"ipad"
"150420-04-sc",5,5.36,"M",6,"bing","control_double",5,"3vs1",2,2608,"ipad"
"150420-04-sc",5,5.36,"M",6,"bing","control_single",6,"1vs1",2,1758,"ipad"
"150420-04-sc",5,5.36,"M",6,"bing","inference",7,"3vs1",2,2367,"ipad"
"150420-04-sc",5,5.36,"M",6,"bing","control_single",8,"1vs1",2,2892,"ipad"
"150420-04-sc",5,5.36,"M",6,"bing","control_single",9,"2vs2",2,2397,"ipad"
"150420-04-sc",5,5.36,"M",6,"bing","control_double",10,"2vs1",2,1629,"ipad"
"150420-04-sc",5,5.36,"M",6,"bing","control_double",11,"3vs1",2,1629,"ipad"
"150420-04-sc",5,5.36,"M",6,"bing","control_single",12,"1vs1",2,1203,"ipad"
"150420-04-sc",5,5.36,"M",6,"bing","control_single",13,"2vs2",2,2362,"ipad"
"150420-04-sc",5,5.36,"M",6,"bing","inference",14,"2vs1",2,4646,"ipad"
"150420-04-sc",5,5.36,"M",6,"bing","control_single",15,"1vs1",2,14857,"ipad"
"150420-04-sc",5,5.36,"M",6,"bing","control_double",16,"2vs1",2,1852,"ipad"
"150420-04-sc",5,5.36,"M",6,"bing","inference",17,"2vs1",2,4773,"ipad"
"150420-04-sc",5,5.36,"M",6,"bing","control_single",18,"2vs2",2,2133,"ipad"
"150420-05-sc",4,4.14,"M",4,"bing","control_single",3,"2vs2",2,3319,"ipad"
"150420-05-sc",4,4.14,"M",4,"bing","inference",4,"3vs1",2,2093,"ipad"
"150420-05-sc",4,4.14,"M",4,"bing","control_double",5,"3vs1",2,2318,"ipad"
"150420-05-sc",4,4.14,"M",4,"bing","control_single",6,"1vs1",2,1141,"ipad"
"150420-05-sc",4,4.14,"M",4,"bing","inference",7,"3vs1",2,9206,"ipad"
"150420-05-sc",4,4.14,"M",4,"bing","control_single",8,"1vs1",2,2025,"ipad"
"150420-05-sc",4,4.14,"M",4,"bing","control_single",9,"2vs2",2,2322,"ipad"
"150420-05-sc",4,4.14,"M",4,"bing","control_double",10,"2vs1",2,1408,"ipad"
"150420-05-sc",4,4.14,"M",4,"bing","control_double",11,"3vs1",1,701,"ipad"
"150420-05-sc",4,4.14,"M",4,"bing","control_single",12,"1vs1",2,953,"ipad"
"150420-05-sc",4,4.14,"M",4,"bing","control_single",13,"2vs2",2,1662,"ipad"
"150420-05-sc",4,4.14,"M",4,"bing","inference",14,"2vs1",2,3105,"ipad"
"150420-05-sc",4,4.14,"M",4,"bing","control_single",15,"1vs1",2,2565,"ipad"
"150420-05-sc",4,4.14,"M",4,"bing","control_double",16,"2vs1",2,1423,"ipad"
"150420-05-sc",4,4.14,"M",4,"bing","inference",17,"2vs1",2,1702,"ipad"
"150420-05-sc",4,4.14,"M",4,"bing","control_single",18,"2vs2",2,1353,"ipad"
"150420-06-sc",4,4.66,"M",6,"bing","control_single",3,"2vs2",2,3091,"ipad"
"150420-06-sc",4,4.66,"M",6,"bing","inference",4,"3vs1",2,5006,"ipad"
"150420-06-sc",4,4.66,"M",6,"bing","control_double",5,"3vs1",2,3126,"ipad"
"150420-06-sc",4,4.66,"M",6,"bing","control_single",6,"1vs1",2,2161,"ipad"
"150420-06-sc",4,4.66,"M",6,"bing","inference",7,"3vs1",2,3898,"ipad"
"150420-06-sc",4,4.66,"M",6,"bing","control_single",8,"1vs1",2,4297,"ipad"
"150420-06-sc",4,4.66,"M",6,"bing","control_single",9,"2vs2",2,2553,"ipad"
"150420-06-sc",4,4.66,"M",6,"bing","control_double",10,"2vs1",2,2243,"ipad"
"150420-06-sc",4,4.66,"M",6,"bing","control_double",11,"3vs1",2,2388,"ipad"
"150420-06-sc",4,4.66,"M",6,"bing","control_single",12,"1vs1",2,2524,"ipad"
"150420-06-sc",4,4.66,"M",6,"bing","control_single",13,"2vs2",2,2229,"ipad"
"150420-06-sc",4,4.66,"M",6,"bing","inference",14,"2vs1",2,2837,"ipad"
"150420-06-sc",4,4.66,"M",6,"bing","control_single",15,"1vs1",2,4224,"ipad"
"150420-06-sc",4,4.66,"M",6,"bing","control_double",16,"2vs1",2,2381,"ipad"
"150420-06-sc",4,4.66,"M",6,"bing","inference",17,"2vs1",2,3338,"ipad"
"150420-06-sc",4,4.66,"M",6,"bing","control_single",18,"2vs2",2,3028,"ipad"
"150424-01-sc",5,5.18,"F",6,"bing","control_single",3,"2vs2",2,1668,"ipad"
"150424-01-sc",5,5.18,"F",6,"bing","inference",4,"3vs1",1,3427,"ipad"
"150424-01-sc",5,5.18,"F",6,"bing","control_double",5,"3vs1",2,2436,"ipad"
"150424-01-sc",5,5.18,"F",6,"bing","control_single",6,"1vs1",2,1603,"ipad"
"150424-01-sc",5,5.18,"F",6,"bing","inference",7,"3vs1",2,2356,"ipad"
"150424-01-sc",5,5.18,"F",6,"bing","control_single",8,"1vs1",2,1609,"ipad"
"150424-01-sc",5,5.18,"F",6,"bing","control_single",9,"2vs2",2,2165,"ipad"
"150424-01-sc",5,5.18,"F",6,"bing","control_double",10,"2vs1",2,2890,"ipad"
"150424-01-sc",5,5.18,"F",6,"bing","control_double",11,"3vs1",2,1483,"ipad"
"150424-01-sc",5,5.18,"F",6,"bing","control_single",12,"1vs1",2,1682,"ipad"
"150424-01-sc",5,5.18,"F",6,"bing","control_single",13,"2vs2",2,2023,"ipad"
"150424-01-sc",5,5.18,"F",6,"bing","inference",14,"2vs1",2,1597,"ipad"
"150424-01-sc",5,5.18,"F",6,"bing","control_single",15,"1vs1",2,1395,"ipad"
"150424-01-sc",5,5.18,"F",6,"bing","control_double",16,"2vs1",2,1536,"ipad"
"150424-01-sc",5,5.18,"F",6,"bing","inference",17,"2vs1",2,1265,"ipad"
"150424-01-sc",5,5.18,"F",6,"bing","control_single",18,"2vs2",2,1990,"ipad"
"150424-02-sc",5,5.05,"F",6,"bing","control_single",3,"2vs2",2,1771,"ipad"
"150424-02-sc",5,5.05,"F",6,"bing","inference",4,"3vs1",2,2090,"ipad"
"150424-02-sc",5,5.05,"F",6,"bing","control_double",5,"3vs1",2,1997,"ipad"
"150424-02-sc",5,5.05,"F",6,"bing","control_single",6,"1vs1",2,1311,"ipad"
"150424-02-sc",5,5.05,"F",6,"bing","inference",7,"3vs1",2,3288,"ipad"
"150424-02-sc",5,5.05,"F",6,"bing","control_single",8,"1vs1",2,2141,"ipad"
"150424-02-sc",5,5.05,"F",6,"bing","control_single",9,"2vs2",2,2708,"ipad"
"150424-02-sc",5,5.05,"F",6,"bing","control_double",10,"2vs1",2,2190,"ipad"
"150424-02-sc",5,5.05,"F",6,"bing","control_double",11,"3vs1",2,2716,"ipad"
"150424-02-sc",5,5.05,"F",6,"bing","control_single",12,"1vs1",2,1709,"ipad"
"150424-02-sc",5,5.05,"F",6,"bing","control_single",13,"2vs2",2,1527,"ipad"
"150424-02-sc",5,5.05,"F",6,"bing","inference",14,"2vs1",2,2196,"ipad"
"150424-02-sc",5,5.05,"F",6,"bing","control_single",15,"1vs1",2,1174,"ipad"
"150424-02-sc",5,5.05,"F",6,"bing","control_double",16,"2vs1",2,1289,"ipad"
"150424-02-sc",5,5.05,"F",6,"bing","inference",17,"2vs1",2,4438,"ipad"
"150424-02-sc",5,5.05,"F",6,"bing","control_single",18,"2vs2",2,1967,"ipad"
"150424-03-sc",4,4.68,"M",6,"bing","control_single",3,"2vs2",2,3542,"ipad"
"150424-03-sc",4,4.68,"M",6,"bing","inference",4,"3vs1",2,8809,"ipad"
"150424-03-sc",4,4.68,"M",6,"bing","control_double",5,"3vs1",2,4462,"ipad"
"150424-03-sc",4,4.68,"M",6,"bing","control_single",6,"1vs1",2,8931,"ipad"
"150424-03-sc",4,4.68,"M",6,"bing","inference",7,"3vs1",2,4004,"ipad"
"150424-03-sc",4,4.68,"M",6,"bing","control_single",8,"1vs1",2,1714,"ipad"
"150424-03-sc",4,4.68,"M",6,"bing","control_single",9,"2vs2",2,2613,"ipad"
"150424-03-sc",4,4.68,"M",6,"bing","control_double",10,"2vs1",2,2184,"ipad"
"150424-03-sc",4,4.68,"M",6,"bing","control_double",11,"3vs1",2,1799,"ipad"
"150424-03-sc",4,4.68,"M",6,"bing","control_single",12,"1vs1",2,1710,"ipad"
"150424-03-sc",4,4.68,"M",6,"bing","control_single",13,"2vs2",2,3319,"ipad"
"150424-03-sc",4,4.68,"M",6,"bing","inference",14,"2vs1",2,9152,"ipad"
"150424-03-sc",4,4.68,"M",6,"bing","control_single",15,"1vs1",2,1848,"ipad"
"150424-03-sc",4,4.68,"M",6,"bing","control_double",16,"2vs1",2,2427,"ipad"
"150424-03-sc",4,4.68,"M",6,"bing","inference",17,"2vs1",1,15586,"ipad"
"150424-03-sc",4,4.68,"M",6,"bing","control_single",18,"2vs2",2,13404,"ipad"
"150518-01-sc",2,2.79,"M",6,"bing","control_single",3,"2vs2",2,3085,"ipad"
"150518-01-sc",2,2.79,"M",6,"bing","inference",4,"3vs1",1,1566,"ipad"
"150518-01-sc",2,2.79,"M",6,"bing","control_double",5,"3vs1",2,8932,"ipad"
"150518-01-sc",2,2.79,"M",6,"bing","control_single",6,"1vs1",1,5387,"ipad"
"150518-01-sc",2,2.79,"M",6,"bing","inference",7,"3vs1",2,5064,"ipad"
"150518-01-sc",2,2.79,"M",6,"bing","control_single",8,"1vs1",2,3884,"ipad"
"150518-01-sc",2,2.79,"M",6,"bing","control_single",9,"2vs2",1,2928,"ipad"
"150518-01-sc",2,2.79,"M",6,"bing","control_double",10,"2vs1",1,6709,"ipad"
"150518-01-sc",2,2.79,"M",6,"bing","control_double",11,"3vs1",1,3419,"ipad"
"150518-01-sc",2,2.79,"M",6,"bing","control_single",12,"1vs1",1,3813,"ipad"
"150518-01-sc",2,2.79,"M",6,"bing","control_single",13,"2vs2",2,4762,"ipad"
"150518-01-sc",2,2.79,"M",6,"bing","inference",14,"2vs1",2,11541,"ipad"
"150518-01-sc",2,2.79,"M",6,"bing","control_single",15,"1vs1",1,12075,"ipad"
"150518-01-sc",2,2.79,"M",6,"bing","control_double",16,"2vs1",2,6329,"ipad"
"150520-01-sc",3,3.27,"F",6,"bing","control_single",3,"2vs2",2,2318,"ipad"
"150520-01-sc",3,3.27,"F",6,"bing","inference",4,"3vs1",2,1821,"ipad"
"150520-01-sc",3,3.27,"F",6,"bing","control_double",5,"3vs1",2,2320,"ipad"
"150520-01-sc",3,3.27,"F",6,"bing","control_single",6,"1vs1",2,1919,"ipad"
"150520-01-sc",3,3.27,"F",6,"bing","inference",7,"3vs1",2,4447,"ipad"
"150520-01-sc",3,3.27,"F",6,"bing","control_single",8,"1vs1",2,2740,"ipad"
"150520-01-sc",3,3.27,"F",6,"bing","control_single",9,"2vs2",2,1993,"ipad"
"150520-01-sc",3,3.27,"F",6,"bing","control_double",10,"2vs1",2,2602,"ipad"
"150520-01-sc",3,3.27,"F",6,"bing","control_double",11,"3vs1",1,10670,"ipad"
"150520-01-sc",3,3.27,"F",6,"bing","control_single",12,"1vs1",2,2020,"ipad"
"150520-01-sc",3,3.27,"F",6,"bing","control_single",13,"2vs2",2,1488,"ipad"
"150520-01-sc",3,3.27,"F",6,"bing","inference",14,"2vs1",2,4606,"ipad"
"150520-01-sc",3,3.27,"F",6,"bing","control_single",15,"1vs1",2,5888,"ipad"
"150520-02-sc",3,3.35,"M",6,"bing","control_single",3,"2vs2",2,6616,"ipad"
"150520-02-sc",3,3.35,"M",6,"bing","inference",4,"3vs1",2,3608,"ipad"
"150520-02-sc",3,3.35,"M",6,"bing","control_double",5,"3vs1",2,3880,"ipad"
"150520-02-sc",3,3.35,"M",6,"bing","control_single",6,"1vs1",1,2348,"ipad"
"150520-02-sc",3,3.35,"M",6,"bing","inference",7,"3vs1",1,4029,"ipad"
"150520-02-sc",3,3.35,"M",6,"bing","control_single",8,"1vs1",2,4628,"ipad"
"150520-02-sc",3,3.35,"M",6,"bing","control_single",9,"2vs2",1,2775,"ipad"
"150520-02-sc",3,3.35,"M",6,"bing","control_double",10,"2vs1",1,2141,"ipad"
"150520-02-sc",3,3.35,"M",6,"bing","control_double",11,"3vs1",1,3475,"ipad"
"150520-02-sc",3,3.35,"M",6,"bing","control_single",12,"1vs1",2,2526,"ipad"
"150520-02-sc",3,3.35,"M",6,"bing","control_single",13,"2vs2",2,2692,"ipad"
"150520-02-sc",3,3.35,"M",6,"bing","inference",14,"2vs1",2,2702,"ipad"
"150520-02-sc",3,3.35,"M",6,"bing","control_single",15,"1vs1",1,3042,"ipad"
"150520-02-sc",3,3.35,"M",6,"bing","control_double",16,"2vs1",1,2466,"ipad"
"150520-02-sc",3,3.35,"M",6,"bing","inference",17,"2vs1",1,12275,"ipad"
"150520-02-sc",3,3.35,"M",6,"bing","control_single",18,"2vs2",1,5691,"ipad"
"150520-03-sc",3,3.44,"M",6,"bing","control_single",3,"2vs2",2,2250,"ipad"
"150520-03-sc",3,3.44,"M",6,"bing","inference",4,"3vs1",1,2413,"ipad"
"150520-03-sc",3,3.44,"M",6,"bing","control_double",5,"3vs1",2,4439,"ipad"
"150520-03-sc",3,3.44,"M",6,"bing","control_single",6,"1vs1",2,2435,"ipad"
"150520-03-sc",3,3.44,"M",6,"bing","inference",7,"3vs1",1,2377,"ipad"
"150520-03-sc",3,3.44,"M",6,"bing","control_single",8,"1vs1",2,2020,"ipad"
"150520-03-sc",3,3.44,"M",6,"bing","control_single",9,"2vs2",2,3256,"ipad"
"150520-03-sc",3,3.44,"M",6,"bing","control_double",10,"2vs1",2,2286,"ipad"
"150520-03-sc",3,3.44,"M",6,"bing","control_double",11,"3vs1",2,3261,"ipad"
"150520-03-sc",3,3.44,"M",6,"bing","control_single",12,"1vs1",2,1460,"ipad"
"150520-03-sc",3,3.44,"M",6,"bing","control_single",13,"2vs2",2,5710,"ipad"
"150520-03-sc",3,3.44,"M",6,"bing","inference",14,"2vs1",2,3538,"ipad"
"150520-03-sc",3,3.44,"M",6,"bing","control_single",15,"1vs1",2,2201,"ipad"
"150520-03-sc",3,3.44,"M",6,"bing","control_double",16,"2vs1",2,2513,"ipad"
"150520-03-sc",3,3.44,"M",6,"bing","inference",17,"2vs1",2,2656,"ipad"
"150520-03-sc",3,3.44,"M",6,"bing","control_single",18,"2vs2",2,1749,"ipad"
"150527-01-sc",2,2.89,"F",6,"bing","control_single",3,"2vs2",1,1134,"ipad"
"150527-01-sc",2,2.89,"F",6,"bing","inference",4,"3vs1",1,2378,"ipad"
"150527-01-sc",2,2.89,"F",6,"bing","control_double",5,"3vs1",2,2053,"ipad"
"150527-01-sc",2,2.89,"F",6,"bing","control_single",6,"1vs1",2,1246,"ipad"
"150527-01-sc",2,2.89,"F",6,"bing","inference",7,"3vs1",2,5668,"ipad"
"150527-01-sc",2,2.89,"F",6,"bing","control_single",8,"1vs1",2,2506,"ipad"
"150527-01-sc",2,2.89,"F",6,"bing","control_single",9,"2vs2",1,1875,"ipad"
"150527-01-sc",2,2.89,"F",6,"bing","control_double",10,"2vs1",2,3412,"ipad"
"150527-01-sc",2,2.89,"F",6,"bing","control_double",11,"3vs1",1,3065,"ipad"
"150527-01-sc",2,2.89,"F",6,"bing","control_single",12,"1vs1",1,5528,"ipad"
"150527-01-sc",2,2.89,"F",6,"bing","control_single",13,"2vs2",1,1913,"ipad"
"150527-01-sc",2,2.89,"F",6,"bing","inference",14,"2vs1",2,1613,"ipad"
"150527-01-sc",2,2.89,"F",6,"bing","control_single",15,"1vs1",1,925,"ipad"
"150527-01-sc",2,2.89,"F",6,"bing","control_double",16,"2vs1",1,7306,"ipad"
"150527-01-sc",2,2.89,"F",6,"bing","inference",17,"2vs1",2,1694,"ipad"
"150527-01-sc",2,2.89,"F",6,"bing","control_single",18,"2vs2",1,15006,"ipad"
"150527-02-sc",3,3.39,"F",6,"bing","control_single",3,"2vs2",2,5454,"ipad"
"150527-02-sc",3,3.39,"F",6,"bing","inference",4,"3vs1",1,10231,"ipad"
"150527-02-sc",3,3.39,"F",6,"bing","control_double",5,"3vs1",2,6474,"ipad"
"150527-02-sc",3,3.39,"F",6,"bing","control_single",6,"1vs1",1,10785,"ipad"
"150527-02-sc",3,3.39,"F",6,"bing","inference",7,"3vs1",1,7448,"ipad"
"150527-02-sc",3,3.39,"F",6,"bing","control_single",8,"1vs1",2,5440,"ipad"
"150527-02-sc",3,3.39,"F",6,"bing","control_single",9,"2vs2",1,5434,"ipad"
"150527-02-sc",3,3.39,"F",6,"bing","control_double",10,"2vs1",2,3107,"ipad"
"150527-02-sc",3,3.39,"F",6,"bing","control_double",11,"3vs1",1,910,"ipad"
"150527-02-sc",3,3.39,"F",6,"bing","control_single",12,"1vs1",2,1870,"ipad"
"150527-02-sc",3,3.39,"F",6,"bing","control_single",13,"2vs2",2,2600,"ipad"
"150527-02-sc",3,3.39,"F",6,"bing","inference",14,"2vs1",2,2721,"ipad"
"150527-02-sc",3,3.39,"F",6,"bing","control_single",15,"1vs1",1,2503,"ipad"
"150527-02-sc",3,3.39,"F",6,"bing","control_double",16,"2vs1",2,614,"ipad"
"150527-02-sc",3,3.39,"F",6,"bing","inference",17,"2vs1",2,8139,"ipad"
"150527-02-sc",3,3.39,"F",6,"bing","control_single",18,"2vs2",2,4345,"ipad"
"150527-03-sc",3,3.41,"F",6,"bing","control_single",3,"2vs2",2,1737,"ipad"
"150527-03-sc",3,3.41,"F",6,"bing","inference",4,"3vs1",2,3736,"ipad"
"150527-03-sc",3,3.41,"F",6,"bing","control_double",5,"3vs1",2,4210,"ipad"
"150527-03-sc",3,3.41,"F",6,"bing","control_single",6,"1vs1",2,2037,"ipad"
"150527-03-sc",3,3.41,"F",6,"bing","inference",7,"3vs1",1,3504,"ipad"
"150527-03-sc",3,3.41,"F",6,"bing","control_single",8,"1vs1",2,1944,"ipad"
"150527-03-sc",3,3.41,"F",6,"bing","control_single",9,"2vs2",2,2238,"ipad"
"150527-03-sc",3,3.41,"F",6,"bing","control_double",10,"2vs1",2,2130,"ipad"
"150527-03-sc",3,3.41,"F",6,"bing","control_double",11,"3vs1",2,1906,"ipad"
"150527-03-sc",3,3.41,"F",6,"bing","control_single",12,"1vs1",2,2119,"ipad"
"150527-03-sc",3,3.41,"F",6,"bing","control_single",13,"2vs2",2,3010,"ipad"
"150527-03-sc",3,3.41,"F",6,"bing","inference",14,"2vs1",2,2551,"ipad"
"150527-03-sc",3,3.41,"F",6,"bing","control_single",15,"1vs1",2,2012,"ipad"
"150527-03-sc",3,3.41,"F",6,"bing","control_double",16,"2vs1",2,2944,"ipad"
"150527-03-sc",3,3.41,"F",6,"bing","inference",17,"2vs1",2,1843,"ipad"
"150527-03-sc",3,3.41,"F",6,"bing","control_single",18,"2vs2",2,2751,"ipad"
"150527-04-sc",3,3.34,"F",6,"bing","control_single",3,"2vs2",2,2026,"ipad"
"150527-04-sc",3,3.34,"F",6,"bing","inference",4,"3vs1",2,2347,"ipad"
"150527-04-sc",3,3.34,"F",6,"bing","control_double",5,"3vs1",2,1961,"ipad"
"150527-04-sc",3,3.34,"F",6,"bing","control_single",6,"1vs1",2,1814,"ipad"
"150527-04-sc",3,3.34,"F",6,"bing","inference",7,"3vs1",2,2095,"ipad"
"150527-04-sc",3,3.34,"F",6,"bing","control_single",8,"1vs1",2,1605,"ipad"
"150527-04-sc",3,3.34,"F",6,"bing","control_single",9,"2vs2",2,1920,"ipad"
"150527-04-sc",3,3.34,"F",6,"bing","control_double",10,"2vs1",2,2077,"ipad"
"150527-04-sc",3,3.34,"F",6,"bing","control_double",11,"3vs1",2,2068,"ipad"
"150527-04-sc",3,3.34,"F",6,"bing","control_single",12,"1vs1",2,1575,"ipad"
"150527-04-sc",3,3.34,"F",6,"bing","control_single",13,"2vs2",2,1730,"ipad"
"150527-04-sc",3,3.34,"F",6,"bing","inference",14,"2vs1",2,2197,"ipad"
"150527-04-sc",3,3.34,"F",6,"bing","control_single",15,"1vs1",2,1548,"ipad"
"150527-04-sc",3,3.34,"F",6,"bing","control_double",16,"2vs1",2,1606,"ipad"
"150527-04-sc",3,3.34,"F",6,"bing","inference",17,"2vs1",2,1433,"ipad"
"150527-04-sc",3,3.34,"F",6,"bing","control_single",18,"2vs2",2,1514,"ipad"
"160310_02",3,3.21,"M",5,"cdm","control_single",3,"2vs2",2,2705,"ipad"
"160310_02",3,3.21,"M",5,"cdm","inference",4,"2vs1",2,2428,"ipad"
"160310_02",3,3.21,"M",5,"cdm","control_double",5,"3vs1",2,2052,"ipad"
"160310_02",3,3.21,"M",5,"cdm","control_single",6,"2vs2",2,2232,"ipad"
"160310_02",3,3.21,"M",5,"cdm","inference",7,"2vs1",1,2215,"ipad"
"160310_02",3,3.21,"M",5,"cdm","control_single",8,"2vs2",2,1859,"ipad"
"160310_02",3,3.21,"M",5,"cdm","control_single",9,"2vs2",2,1898,"ipad"
"160310_02",3,3.21,"M",5,"cdm","control_double",10,"2vs1",2,12226,"ipad"
"160310_02",3,3.21,"M",5,"cdm","control_double",11,"3vs1",2,4787,"ipad"
"160310_02",3,3.21,"M",5,"cdm","control_single",12,"1vs1",2,2305,"ipad"
"160310_02",3,3.21,"M",5,"cdm","inference",14,"3vs1",2,2660,"ipad"
"160310_02",3,3.21,"M",5,"cdm","control_single",15,"1vs1",2,3710,"ipad"
"160310_02",3,3.21,"M",5,"cdm","control_double",16,"2vs1",2,6380,"ipad"
"160310_02",3,3.21,"M",5,"cdm","inference",17,"3vs1",1,3300,"ipad"
"160310_02",3,3.21,"M",5,"cdm","control_single",18,"1vs1",2,3401,"ipad"
"160310_04",5,5.3,"F",6,"cdm","control_single",3,"2vs2",2,2049,"ipad"
"160310_04",5,5.3,"F",6,"cdm","inference",4,"2vs1",2,4645,"ipad"
"160310_04",5,5.3,"F",6,"cdm","control_double",5,"3vs1",2,2209,"ipad"
"160310_04",5,5.3,"F",6,"cdm","control_single",6,"2vs2",2,1918,"ipad"
"160310_04",5,5.3,"F",6,"cdm","inference",7,"2vs1",2,2606,"ipad"
"160310_04",5,5.3,"F",6,"cdm","control_single",8,"2vs2",2,1746,"ipad"
"160310_04",5,5.3,"F",6,"cdm","control_single",9,"2vs2",2,2391,"ipad"
"160310_04",5,5.3,"F",6,"cdm","control_double",10,"2vs1",2,2562,"ipad"
"160310_04",5,5.3,"F",6,"cdm","control_double",11,"3vs1",2,1979,"ipad"
"160310_04",5,5.3,"F",6,"cdm","control_single",12,"1vs1",2,1907,"ipad"
"160310_04",5,5.3,"F",6,"cdm","control_single",13,"1vs1",2,1705,"ipad"
"160310_04",5,5.3,"F",6,"cdm","inference",14,"3vs1",2,4292,"ipad"
"160310_04",5,5.3,"F",6,"cdm","control_single",15,"1vs1",2,1922,"ipad"
"160310_04",5,5.3,"F",6,"cdm","control_double",16,"2vs1",2,1597,"ipad"
"160310_04",5,5.3,"F",6,"cdm","inference",17,"3vs1",2,1686,"ipad"
"160310_04",5,5.3,"F",6,"cdm","control_single",18,"1vs1",2,1219,"ipad"
"160313_01",2,2.95,"F",6,"cdm","control_single",3,"2vs2",2,3017,"ipad"
"160313_01",2,2.95,"F",6,"cdm","control_double",5,"3vs1",2,3933,"ipad"
"160313_01",2,2.95,"F",6,"cdm","control_single",6,"1vs1",2,2191,"ipad"
"160313_01",2,2.95,"F",6,"cdm","inference",7,"3vs1",1,3370,"ipad"
"160313_01",2,2.95,"F",6,"cdm","control_single",8,"1vs1",2,423,"ipad"
"160313_01",2,2.95,"F",6,"cdm","control_single",9,"2vs2",2,4399,"ipad"
"160313_01",2,2.95,"F",6,"cdm","control_double",10,"2vs1",2,3371,"ipad"
"160313_01",2,2.95,"F",6,"cdm","control_double",11,"3vs1",2,2166,"ipad"
"160313_01",2,2.95,"F",6,"cdm","control_single",12,"1vs1",2,2759,"ipad"
"160313_01",2,2.95,"F",6,"cdm","control_single",13,"2vs2",2,2240,"ipad"
"160313_01",2,2.95,"F",6,"cdm","inference",14,"2vs1",2,1628,"ipad"
"160313_01",2,2.95,"F",6,"cdm","control_single",15,"1vs1",2,2266,"ipad"
"160313_01",2,2.95,"F",6,"cdm","control_double",16,"2vs1",2,2205,"ipad"
"160313_01",2,2.95,"F",6,"cdm","inference",17,"2vs1",2,2881,"ipad"
"160313_01",2,2.95,"F",6,"cdm","control_single",18,"2vs2",2,3037,"ipad"
"160313_04",5,5.06,"F",6,"cdm","control_single",3,"2vs2",2,1501,"ipad"
"160313_04",5,5.06,"F",6,"cdm","inference",4,"2vs1",2,2357,"ipad"
"160313_04",5,5.06,"F",6,"cdm","control_double",5,"3vs1",2,2433,"ipad"
"160313_04",5,5.06,"F",6,"cdm","control_single",6,"2vs2",2,1947,"ipad"
"160313_04",5,5.06,"F",6,"cdm","inference",7,"2vs1",2,1158,"ipad"
"160313_04",5,5.06,"F",6,"cdm","control_single",8,"2vs2",2,10606,"ipad"
"160313_04",5,5.06,"F",6,"cdm","control_single",9,"2vs2",2,1414,"ipad"
"160313_04",5,5.06,"F",6,"cdm","control_double",10,"2vs1",2,1362,"ipad"
"160313_04",5,5.06,"F",6,"cdm","control_double",11,"3vs1",2,2765,"ipad"
"160313_04",5,5.06,"F",6,"cdm","control_single",12,"1vs1",2,954,"ipad"
"160313_04",5,5.06,"F",6,"cdm","control_single",13,"1vs1",2,920,"ipad"
"160313_04",5,5.06,"F",6,"cdm","inference",14,"3vs1",2,1365,"ipad"
"160313_04",5,5.06,"F",6,"cdm","control_single",15,"1vs1",2,1586,"ipad"
"160313_04",5,5.06,"F",6,"cdm","control_double",16,"2vs1",2,1312,"ipad"
"160313_04",5,5.06,"F",6,"cdm","inference",17,"3vs1",2,1759,"ipad"
"160313_04",5,5.06,"F",6,"cdm","control_single",18,"1vs1",2,1195,"ipad"
"160315_01",5,5.84,"M",4,"cdm","control_single",3,"2vs2",2,1262,"ipad"
"160315_01",5,5.84,"M",4,"cdm","inference",4,"3vs1",2,1284,"ipad"
"160315_01",5,5.84,"M",4,"cdm","control_double",5,"3vs1",2,2042,"ipad"
"160315_01",5,5.84,"M",4,"cdm","control_single",6,"1vs1",2,1080,"ipad"
"160315_01",5,5.84,"M",4,"cdm","inference",7,"3vs1",2,1220,"ipad"
"160315_01",5,5.84,"M",4,"cdm","control_single",8,"1vs1",2,1291,"ipad"
"160315_01",5,5.84,"M",4,"cdm","control_single",9,"2vs2",2,1791,"ipad"
"160315_01",5,5.84,"M",4,"cdm","control_double",10,"2vs1",2,1489,"ipad"
"160315_01",5,5.84,"M",4,"cdm","control_double",11,"3vs1",2,1065,"ipad"
"160315_01",5,5.84,"M",4,"cdm","control_single",12,"1vs1",2,1284,"ipad"
"160315_01",5,5.84,"M",4,"cdm","control_single",13,"2vs2",2,1039,"ipad"
"160315_01",5,5.84,"M",4,"cdm","inference",14,"2vs1",2,1015,"ipad"
"160315_01",5,5.84,"M",4,"cdm","control_single",15,"1vs1",2,1328,"ipad"
"160315_01",5,5.84,"M",4,"cdm","control_double",16,"2vs1",2,1054,"ipad"
"160315_01",5,5.84,"M",4,"cdm","inference",17,"2vs1",2,1365,"ipad"
"160315_01",5,5.84,"M",4,"cdm","control_single",18,"2vs2",2,846,"ipad"
"160315_02",5,5.28,"M",6,"cdm","control_single",3,"2vs2",2,1667,"ipad"
"160315_02",5,5.28,"M",6,"cdm","inference",4,"2vs1",1,2402,"ipad"
"160315_02",5,5.28,"M",6,"cdm","control_double",5,"3vs1",2,1729,"ipad"
"160315_02",5,5.28,"M",6,"cdm","control_single",6,"2vs2",2,3035,"ipad"
"160315_02",5,5.28,"M",6,"cdm","inference",7,"2vs1",2,1636,"ipad"
"160315_02",5,5.28,"M",6,"cdm","control_single",8,"2vs2",2,1487,"ipad"
"160315_02",5,5.28,"M",6,"cdm","control_single",9,"2vs2",2,1296,"ipad"
"160315_02",5,5.28,"M",6,"cdm","control_double",10,"2vs1",2,1273,"ipad"
"160315_02",5,5.28,"M",6,"cdm","control_double",11,"3vs1",1,1391,"ipad"
"160315_02",5,5.28,"M",6,"cdm","control_single",12,"1vs1",2,1523,"ipad"
"160315_02",5,5.28,"M",6,"cdm","control_single",13,"1vs1",2,1590,"ipad"
"160315_02",5,5.28,"M",6,"cdm","inference",14,"3vs1",2,1188,"ipad"
"160315_02",5,5.28,"M",6,"cdm","control_single",15,"1vs1",2,1510,"ipad"
"160315_02",5,5.28,"M",6,"cdm","control_double",16,"2vs1",2,1729,"ipad"
"160315_02",5,5.28,"M",6,"cdm","inference",17,"3vs1",2,1160,"ipad"
"160315_02",5,5.28,"M",6,"cdm","control_single",18,"1vs1",2,1418,"ipad"
"160316_01",2,2.81,"F",6,"cdm","control_single",3,"2vs2",2,4640,"ipad"
"160316_01",2,2.81,"F",6,"cdm","inference",4,"3vs1",1,4616,"ipad"
"160316_01",2,2.81,"F",6,"cdm","control_double",5,"3vs1",2,3508,"ipad"
"160316_01",2,2.81,"F",6,"cdm","control_single",6,"1vs1",2,5924,"ipad"
"160316_01",2,2.81,"F",6,"cdm","inference",7,"3vs1",1,4026,"ipad"
"160316_01",2,2.81,"F",6,"cdm","control_single",8,"1vs1",2,2679,"ipad"
"160316_01",2,2.81,"F",6,"cdm","control_single",9,"2vs2",2,2964,"ipad"
"160316_01",2,2.81,"F",6,"cdm","control_double",10,"2vs1",2,2121,"ipad"
"160316_01",2,2.81,"F",6,"cdm","control_double",11,"3vs1",2,3000,"ipad"
"160316_01",2,2.81,"F",6,"cdm","control_single",12,"1vs1",2,2399,"ipad"
"160316_01",2,2.81,"F",6,"cdm","control_single",13,"2vs2",2,2844,"ipad"
"160316_01",2,2.81,"F",6,"cdm","inference",14,"2vs1",1,2891,"ipad"
"160316_01",2,2.81,"F",6,"cdm","control_single",15,"1vs1",2,2392,"ipad"
"160316_01",2,2.81,"F",6,"cdm","control_double",16,"2vs1",2,2115,"ipad"
"160316_01",2,2.81,"F",6,"cdm","inference",17,"2vs1",1,5060,"ipad"
"160316_01",2,2.81,"F",6,"cdm","control_single",18,"2vs2",2,8162,"ipad"
"160316_03",5,5.25,"M",5,"cdm","control_single",3,"2vs2",2,1971,"ipad"
"160316_03",5,5.25,"M",5,"cdm","inference",4,"3vs1",2,1313,"ipad"
"160316_03",5,5.25,"M",5,"cdm","control_double",5,"3vs1",2,2627,"ipad"
"160316_03",5,5.25,"M",5,"cdm","control_single",6,"1vs1",2,2410,"ipad"
"160316_03",5,5.25,"M",5,"cdm","inference",7,"3vs1",2,2418,"ipad"
"160316_03",5,5.25,"M",5,"cdm","control_single",8,"1vs1",2,2266,"ipad"
"160316_03",5,5.25,"M",5,"cdm","control_single",9,"2vs2",2,2101,"ipad"
"160316_03",5,5.25,"M",5,"cdm","control_double",10,"2vs1",2,1862,"ipad"
"160316_03",5,5.25,"M",5,"cdm","control_double",11,"3vs1",2,2466,"ipad"
"160316_03",5,5.25,"M",5,"cdm","control_single",12,"1vs1",2,3398,"ipad"
"160316_03",5,5.25,"M",5,"cdm","control_single",13,"2vs2",2,1889,"ipad"
"160316_03",5,5.25,"M",5,"cdm","inference",14,"2vs1",2,1746,"ipad"
"160316_03",5,5.25,"M",5,"cdm","control_single",15,"1vs1",2,2486,"ipad"
"160316_03",5,5.25,"M",5,"cdm","control_double",16,"2vs1",2,2808,"ipad"
"160316_03",5,5.25,"M",5,"cdm","inference",17,"2vs1",2,1577,"ipad"
"160316_03",5,5.25,"M",5,"cdm","control_single",18,"2vs2",2,2521,"ipad"
"160318_01",5,5.77,"M",5,"cdm","control_single",3,"2vs2",2,2978,"ipad"
"160318_01",5,5.77,"M",5,"cdm","inference",4,"3vs1",2,4275,"ipad"
"160318_01",5,5.77,"M",5,"cdm","control_double",5,"3vs1",2,3435,"ipad"
"160318_01",5,5.77,"M",5,"cdm","control_single",6,"1vs1",2,1991,"ipad"
"160318_01",5,5.77,"M",5,"cdm","inference",7,"3vs1",2,2183,"ipad"
"160318_01",5,5.77,"M",5,"cdm","control_single",8,"1vs1",2,1521,"ipad"
"160318_01",5,5.77,"M",5,"cdm","control_single",9,"2vs2",2,2304,"ipad"
"160318_01",5,5.77,"M",5,"cdm","control_double",10,"2vs1",2,1975,"ipad"
"160318_01",5,5.77,"M",5,"cdm","control_double",11,"3vs1",2,2099,"ipad"
"160318_01",5,5.77,"M",5,"cdm","control_single",12,"1vs1",2,1523,"ipad"
"160318_01",5,5.77,"M",5,"cdm","control_single",13,"2vs2",2,1643,"ipad"
"160318_01",5,5.77,"M",5,"cdm","inference",14,"2vs1",2,2824,"ipad"
"160318_01",5,5.77,"M",5,"cdm","control_single",15,"1vs1",2,1567,"ipad"
"160318_01",5,5.77,"M",5,"cdm","control_double",16,"2vs1",2,1616,"ipad"
"160318_01",5,5.77,"M",5,"cdm","inference",17,"2vs1",2,1961,"ipad"
"160318_01",5,5.77,"M",5,"cdm","control_single",18,"2vs2",2,2033,"ipad"
"160320_01",5,5.2,"M",4,"cdm","control_single",3,"2vs2",2,1924,"ipad"
"160320_01",5,5.2,"M",4,"cdm","inference",4,"3vs1",2,3184,"ipad"
"160320_01",5,5.2,"M",4,"cdm","control_double",5,"3vs1",2,3590,"ipad"
"160320_01",5,5.2,"M",4,"cdm","control_single",6,"1vs1",2,2067,"ipad"
"160320_01",5,5.2,"M",4,"cdm","inference",7,"3vs1",2,2878,"ipad"
"160320_01",5,5.2,"M",4,"cdm","control_single",8,"1vs1",2,2607,"ipad"
"160320_01",5,5.2,"M",4,"cdm","control_single",9,"2vs2",2,1877,"ipad"
"160320_01",5,5.2,"M",4,"cdm","control_double",10,"2vs1",2,2214,"ipad"
"160320_01",5,5.2,"M",4,"cdm","control_double",11,"3vs1",2,1600,"ipad"
"160320_01",5,5.2,"M",4,"cdm","control_single",12,"1vs1",2,1493,"ipad"
"160320_01",5,5.2,"M",4,"cdm","control_single",13,"2vs2",2,1852,"ipad"
"160320_01",5,5.2,"M",4,"cdm","inference",14,"2vs1",2,1665,"ipad"
"160320_01",5,5.2,"M",4,"cdm","control_single",15,"1vs1",2,1602,"ipad"
"160320_01",5,5.2,"M",4,"cdm","control_double",16,"2vs1",2,1727,"ipad"
"160320_01",5,5.2,"M",4,"cdm","inference",17,"2vs1",2,1641,"ipad"
"160320_01",5,5.2,"M",4,"cdm","control_single",18,"2vs2",2,1732,"ipad"
"160320_02",5,5.13,"M",4,"cdm","control_single",3,"2vs2",2,2484,"ipad"
"160320_02",5,5.13,"M",4,"cdm","inference",4,"2vs1",2,4309,"ipad"
"160320_02",5,5.13,"M",4,"cdm","control_double",5,"3vs1",2,2122,"ipad"
"160320_02",5,5.13,"M",4,"cdm","control_single",6,"2vs2",2,1559,"ipad"
"160320_02",5,5.13,"M",4,"cdm","inference",7,"2vs1",1,4973,"ipad"
"160320_02",5,5.13,"M",4,"cdm","control_single",8,"2vs2",2,2527,"ipad"
"160320_02",5,5.13,"M",4,"cdm","control_single",9,"2vs2",2,1724,"ipad"
"160320_02",5,5.13,"M",4,"cdm","control_double",10,"2vs1",2,2043,"ipad"
"160320_02",5,5.13,"M",4,"cdm","control_double",11,"3vs1",2,2104,"ipad"
"160320_02",5,5.13,"M",4,"cdm","control_single",12,"1vs1",2,1846,"ipad"
"160320_02",5,5.13,"M",4,"cdm","control_single",13,"1vs1",2,1570,"ipad"
"160320_02",5,5.13,"M",4,"cdm","inference",14,"3vs1",2,2650,"ipad"
"160320_02",5,5.13,"M",4,"cdm","control_single",15,"1vs1",2,1737,"ipad"
"160320_02",5,5.13,"M",4,"cdm","control_double",16,"2vs1",2,1252,"ipad"
"160320_02",5,5.13,"M",4,"cdm","inference",17,"3vs1",2,1725,"ipad"
"160320_02",5,5.13,"M",4,"cdm","control_single",18,"1vs1",2,1623,"ipad"
"160320_03",5,5.66,"F",5,"cdm","control_single",3,"2vs2",2,1611,"ipad"
"160320_03",5,5.66,"F",5,"cdm","inference",4,"3vs1",2,2266,"ipad"
"160320_03",5,5.66,"F",5,"cdm","control_double",5,"3vs1",2,2476,"ipad"
"160320_03",5,5.66,"F",5,"cdm","control_single",6,"1vs1",2,1244,"ipad"
"160320_03",5,5.66,"F",5,"cdm","inference",7,"3vs1",2,2091,"ipad"
"160320_03",5,5.66,"F",5,"cdm","control_single",8,"1vs1",2,2028,"ipad"
"160320_03",5,5.66,"F",5,"cdm","control_single",9,"2vs2",2,1998,"ipad"
"160320_03",5,5.66,"F",5,"cdm","control_double",10,"2vs1",2,1529,"ipad"
"160320_03",5,5.66,"F",5,"cdm","control_double",11,"3vs1",2,1824,"ipad"
"160320_03",5,5.66,"F",5,"cdm","control_single",12,"1vs1",2,1398,"ipad"
"160320_03",5,5.66,"F",5,"cdm","control_single",13,"2vs2",2,1379,"ipad"
"160320_03",5,5.66,"F",5,"cdm","inference",14,"2vs1",2,2169,"ipad"
"160320_03",5,5.66,"F",5,"cdm","control_single",15,"1vs1",2,1623,"ipad"
"160320_03",5,5.66,"F",5,"cdm","control_double",16,"2vs1",2,1277,"ipad"
"160320_03",5,5.66,"F",5,"cdm","inference",17,"2vs1",2,2113,"ipad"
"160320_03",5,5.66,"F",5,"cdm","control_single",18,"2vs2",2,1909,"ipad"
"160322_01",2,2.88,"F",6,"cdm","control_single",3,"2vs2",2,6395,"ipad"
"160322_01",2,2.88,"F",6,"cdm","inference",4,"3vs1",1,5440,"ipad"
"160322_01",2,2.88,"F",6,"cdm","control_double",5,"3vs1",2,5465,"ipad"
"160322_01",2,2.88,"F",6,"cdm","control_single",6,"1vs1",2,3757,"ipad"
"160322_01",2,2.88,"F",6,"cdm","inference",7,"3vs1",2,4327,"ipad"
"160322_01",2,2.88,"F",6,"cdm","control_single",8,"1vs1",1,401,"ipad"
"160322_01",2,2.88,"F",6,"cdm","control_single",9,"2vs2",2,5338,"ipad"
"160322_01",2,2.88,"F",6,"cdm","control_double",10,"2vs1",2,4539,"ipad"
"160322_01",2,2.88,"F",6,"cdm","control_double",11,"3vs1",2,7025,"ipad"
"160322_01",2,2.88,"F",6,"cdm","control_single",12,"1vs1",2,4089,"ipad"
"160322_01",2,2.88,"F",6,"cdm","control_single",13,"2vs2",1,4641,"ipad"
"160322_01",2,2.88,"F",6,"cdm","inference",14,"2vs1",2,3571,"ipad"
"160322_01",2,2.88,"F",6,"cdm","control_single",15,"1vs1",2,3328,"ipad"
"160322_01",2,2.88,"F",6,"cdm","control_double",16,"2vs1",1,4001,"ipad"
"160322_01",2,2.88,"F",6,"cdm","inference",17,"2vs1",1,2780,"ipad"
"160322_01",2,2.88,"F",6,"cdm","control_single",18,"2vs2",2,3266,"ipad"
"160323_01",2,2.42,"F",6,"cdm","control_single",3,"2vs2",2,2217,"ipad"
"160323_01",2,2.42,"F",6,"cdm","inference",4,"3vs1",2,2628,"ipad"
"160323_01",2,2.42,"F",6,"cdm","control_double",5,"3vs1",2,3000,"ipad"
"160323_01",2,2.42,"F",6,"cdm","control_single",6,"1vs1",2,1926,"ipad"
"160323_01",2,2.42,"F",6,"cdm","inference",7,"3vs1",2,5154,"ipad"
"160323_01",2,2.42,"F",6,"cdm","control_single",8,"1vs1",2,6673,"ipad"
"160323_01",2,2.42,"F",6,"cdm","control_single",9,"2vs2",2,4172,"ipad"
"160323_01",2,2.42,"F",6,"cdm","control_double",10,"2vs1",2,3172,"ipad"
"160323_01",2,2.42,"F",6,"cdm","control_double",11,"3vs1",2,12726,"ipad"
"160323_01",2,2.42,"F",6,"cdm","inference",14,"2vs1",1,11319,"ipad"
"160323_01",2,2.42,"F",6,"cdm","control_single",15,"1vs1",1,9774,"ipad"
"160323_01",2,2.42,"F",6,"cdm","control_double",16,"2vs1",2,699,"ipad"
"160323_01",2,2.42,"F",6,"cdm","inference",17,"2vs1",2,514,"ipad"
"160323_01",2,2.42,"F",6,"cdm","control_single",18,"2vs2",1,2198,"ipad"
"160323_02",2,2.34,"F",4,"cdm","inference",4,"2vs1",2,5110,"ipad"
"160323_02",2,2.34,"F",4,"cdm","control_double",5,"3vs1",1,12597,"ipad"
"160323_02",2,2.34,"F",4,"cdm","control_single",6,"2vs2",2,454,"ipad"
"160323_02",2,2.34,"F",4,"cdm","control_single",8,"2vs2",2,3288,"ipad"
"160323_02",2,2.34,"F",4,"cdm","control_single",9,"2vs2",1,5884,"ipad"
"160323_02",2,2.34,"F",4,"cdm","control_double",10,"2vs1",2,4308,"ipad"
"160323_02",2,2.34,"F",4,"cdm","control_double",11,"3vs1",1,3560,"ipad"
"160323_02",2,2.34,"F",4,"cdm","control_single",12,"1vs1",1,2692,"ipad"
"160323_02",2,2.34,"F",4,"cdm","control_single",13,"1vs1",2,3636,"ipad"
"160323_02",2,2.34,"F",4,"cdm","control_single",15,"1vs1",2,6456,"ipad"
"160323_02",2,2.34,"F",4,"cdm","control_double",16,"2vs1",2,7899,"ipad"
"160323_02",2,2.34,"F",4,"cdm","control_single",18,"1vs1",1,3010,"ipad"
"160325_01",2,2.71,"F",5,"cdm","control_single",3,"2vs2",2,4182,"ipad"
"160325_01",2,2.71,"F",5,"cdm","inference",4,"3vs1",2,6165,"ipad"
"160325_01",2,2.71,"F",5,"cdm","control_double",5,"3vs1",2,4962,"ipad"
"160325_01",2,2.71,"F",5,"cdm","control_single",6,"1vs1",2,4568,"ipad"
"160325_01",2,2.71,"F",5,"cdm","inference",7,"3vs1",1,4020,"ipad"
"160325_01",2,2.71,"F",5,"cdm","control_single",8,"1vs1",2,4608,"ipad"
"160325_01",2,2.71,"F",5,"cdm","control_single",9,"2vs2",2,4083,"ipad"
"160325_01",2,2.71,"F",5,"cdm","control_double",10,"2vs1",2,5423,"ipad"
"160325_01",2,2.71,"F",5,"cdm","control_double",11,"3vs1",2,6437,"ipad"
"160325_01",2,2.71,"F",5,"cdm","control_single",12,"1vs1",2,4711,"ipad"
"160325_01",2,2.71,"F",5,"cdm","control_single",13,"2vs2",2,3226,"ipad"
"160325_01",2,2.71,"F",5,"cdm","inference",14,"2vs1",2,4300,"ipad"
"160325_01",2,2.71,"F",5,"cdm","control_single",15,"1vs1",2,4938,"ipad"
"160325_01",2,2.71,"F",5,"cdm","control_double",16,"2vs1",2,4333,"ipad"
"160325_01",2,2.71,"F",5,"cdm","inference",17,"2vs1",1,3965,"ipad"
"160325_01",2,2.71,"F",5,"cdm","control_single",18,"2vs2",2,4732,"ipad"
"160325_02",2,2.26,"F",6,"cdm","control_single",3,"2vs2",2,6644,"ipad"
"160325_02",2,2.26,"F",6,"cdm","inference",4,"2vs1",1,6566,"ipad"
"160325_02",2,2.26,"F",6,"cdm","control_double",5,"3vs1",1,541,"ipad"
"160325_02",2,2.26,"F",6,"cdm","control_single",6,"2vs2",2,792,"ipad"
