"subid","list","trial_num","word","pic1","pic2","trial_type","pic1type","pic2type","side_clicked","pic_clicked","correct","datetesting","time","rt","item_num","V17","keep_drop","expt","age_group","English"
"141204-01-sc",1,1,"practice1_cow","practice1_cow","practice1_lion","practice","target","distractor","L","practice1_cow","Y","12/4/14","8:40",7545,NA,NA,"keep","ipad","3",6
"141204-01-sc",1,2,"practice2_monkey","practice2_rabbit","practice2_monkey","practice","distractor","target","R","practice2_monkey","Y","12/4/14","8:40",1610,NA,NA,"keep","ipad","3",6
"141204-01-sc",1,3,"elmo_teddybear","elmo_flower","elmo_teddybear","control_single","distractor","target","R","elmo_teddybear","Y","12/4/14","8:40",1997,"2vs2",NA,"keep","ipad","3",6
"141204-01-sc",1,4,"elmo_apple","elmo_apple","elmo_orange","inference","target","distractor","L","elmo_apple","Y","12/4/14","8:40",1897,"3vs1",NA,"keep","ipad","3",6
"141204-01-sc",1,5,"grover_dog","grover_cat","grover_dog","control_double","distractor","target","R","grover_dog","Y","12/4/14","8:40",3739,"3vs1",NA,"keep","ipad","3",6
"141204-01-sc",1,6,"elmo_banana","elmo_banana","elmo_carrot","control_single","target","distractor","L","elmo_banana","Y","12/4/14","8:40",1517,"1vs1",NA,"keep","ipad","3",6
"141204-01-sc",1,7,"grover_car","grover_car","grover_bicycle","inference","target","distractor","R","grover_bicycle","N","12/4/14","8:40",15925,"3vs1",NA,"keep","ipad","3",6
"141204-01-sc",1,8,"ernie_orange","ernie_apple","ernie_orange","control_single","distractor","target","R","ernie_orange","Y","12/4/14","8:40",3315,"1vs1",NA,"keep","ipad","3",6
"141204-01-sc",1,9,"bert_cat","bert_cat","bert_dog","control_single","target","distractor","L","bert_cat","Y","12/4/14","8:40",2443,"2vs2",NA,"keep","ipad","3",6
"141204-01-sc",1,10,"bert_ball","bert_ball","bert_truck","control_double","target","distractor","L","bert_ball","Y","12/4/14","8:40",2169,"2vs1",NA,"keep","ipad","3",6
"141204-01-sc",1,11,"bert_flower","bert_flower","bert_teddybear","control_double","target","distractor","L","bert_flower","Y","12/4/14","8:40",3193,"3vs1",NA,"keep","ipad","3",6
"141204-01-sc",1,12,"elmo_truck","elmo_ball","elmo_truck","control_single","distractor","target","R","elmo_truck","Y","12/4/14","8:40",2063,"1vs1",NA,"keep","ipad","3",6
"141204-01-sc",1,13,"bert_bicycle","bert_car","bert_bicycle","control_single","distractor","target","R","bert_bicycle","Y","12/4/14","8:40",2650,"2vs2",NA,"keep","ipad","3",6
"141204-01-sc",1,14,"bert_carrot","bert_banana","bert_carrot","inference","distractor","target","R","bert_carrot","Y","12/4/14","8:40",4229,"2vs1",NA,"keep","ipad","3",6
"141204-01-sc",1,15,"ernie_car","ernie_car","ernie_bicycle","control_single","target","distractor","L","ernie_car","Y","12/4/14","8:40",1967,"1vs1",NA,"keep","ipad","3",6
"141204-01-sc",1,16,"grover_orange","grover_apple","grover_orange","control_double","distractor","target","R","grover_orange","Y","12/4/14","8:40",2199,"2vs1",NA,"keep","ipad","3",6
"141204-02-sc",2,1,"practice1_lion","practice1_cow","practice1_lion","practice","distractor","target","L","practice1_cow","N","12/4/14","9:02",8396,NA,NA,"keep","ipad","3",6
"141204-02-sc",2,2,"practice2_rabbit","practice2_rabbit","practice2_monkey","practice","target","distractor","R","practice2_monkey","N","12/4/14","9:02",15659,NA,NA,"keep","ipad","3",6
"141204-02-sc",2,3,"grover_orange2","grover_apple2","grover_orange2","control_single","distractor","target","R","grover_orange2","Y","12/4/14","9:02",2041,"2vs2",NA,"keep","ipad","3",6
"141204-02-sc",2,4,"bert_dog2","bert_cat2","bert_dog2","inference","distractor","target","L","bert_cat2","N","12/4/14","9:02",1639,"2vs1",NA,"keep","ipad","3",6
"141204-02-sc",2,5,"bert_car2","bert_car2","bert_bicycle2","control_double","target","distractor","L","bert_car2","Y","12/4/14","9:02",1656,"3vs1",NA,"keep","ipad","3",6
"141204-02-sc",2,6,"bert_teddybear2","bert_flower2","bert_teddybear2","control_single","distractor","target","L","bert_flower2","N","12/4/14","9:02",2177,"2vs2",NA,"keep","ipad","3",6
"141204-02-sc",2,7,"grover_ball2","grover_ball2","grover_truck2","inference","target","distractor","L","grover_ball2","Y","12/4/14","9:02",2541,"2vs1",NA,"keep","ipad","3",6
"141204-02-sc",2,8,"elmo_cat2","elmo_dog2","elmo_cat2","control_single","distractor","target","R","elmo_cat2","Y","12/4/14","9:02",1655,"2vs2",NA,"keep","ipad","3",6
"141204-02-sc",2,9,"grover_car2","grover_car2","grover_bicycle2","control_single","target","distractor","L","grover_car2","Y","12/4/14","9:02",1671,"2vs2",NA,"keep","ipad","3",6
"141204-02-sc",2,10,"grover_carrot2","grover_banana2","grover_carrot2","control_double","distractor","target","R","grover_carrot2","Y","12/4/14","9:02",2272,"2vs1",NA,"keep","ipad","3",6
"141204-02-sc",2,11,"ernie_apple2","ernie_apple2","ernie_orange2","control_double","target","distractor","L","ernie_apple2","Y","12/4/14","9:02",1728,"3vs1",NA,"keep","ipad","3",6
"141204-02-sc",2,12,"bert_banana2","bert_banana2","bert_carrot2","control_single","target","distractor","L","bert_banana2","Y","12/4/14","9:02",1727,"1vs1",NA,"keep","ipad","3",6
"141204-02-sc",2,13,"bert_truck2","bert_ball2","bert_truck2","control_single","distractor","target","R","bert_truck2","Y","12/4/14","9:02",2293,"1vs1",NA,"keep","ipad","3",6
"141204-02-sc",2,14,"grover_flower2","grover_teddybear2","grover_flower2","inference","distractor","target","L","grover_teddybear2","N","12/4/14","9:02",1929,"3vs1",NA,"keep","ipad","3",6
"141204-02-sc",2,15,"ernie_flower2","ernie_flower2","ernie_teddybear2","control_single","target","distractor","L","ernie_flower2","Y","12/4/14","9:02",2015,"1vs1",NA,"keep","ipad","3",6
"141204-02-sc",2,16,"ernie_cat2","ernie_cat2","ernie_dog2","control_double","target","distractor","L","ernie_cat2","Y","12/4/14","9:02",1839,"2vs1",NA,"keep","ipad","3",6
"141204-03-sc",1,1,"practice1_cow","practice1_cow","practice1_lion","practice","target","distractor","L","practice1_cow","Y","12/4/14","9:26",6584,NA,NA,"keep","ipad","3",6
"141204-03-sc",1,2,"practice2_monkey","practice2_rabbit","practice2_monkey","practice","distractor","target","R","practice2_monkey","Y","12/4/14","9:26",2177,NA,NA,"keep","ipad","3",6
"141204-03-sc",1,3,"elmo_teddybear","elmo_flower","elmo_teddybear","control_single","distractor","target","R","elmo_teddybear","Y","12/4/14","9:26",2253,"2vs2",NA,"keep","ipad","3",6
"141204-03-sc",1,4,"elmo_apple","elmo_apple","elmo_orange","inference","target","distractor","L","elmo_apple","Y","12/4/14","9:26",2257,"3vs1",NA,"keep","ipad","3",6
"141204-03-sc",1,5,"grover_dog","grover_cat","grover_dog","control_double","distractor","target","R","grover_dog","Y","12/4/14","9:26",3995,"3vs1",NA,"keep","ipad","3",6
"141204-03-sc",1,6,"elmo_banana","elmo_banana","elmo_carrot","control_single","target","distractor","L","elmo_banana","Y","12/4/14","9:26",1788,"1vs1",NA,"keep","ipad","3",6
"141204-03-sc",1,7,"grover_car","grover_car","grover_bicycle","inference","target","distractor","R","grover_bicycle","N","12/4/14","9:26",31475,"3vs1",NA,"keep","ipad","3",6
"141204-03-sc",1,8,"ernie_orange","ernie_apple","ernie_orange","control_single","distractor","target","R","ernie_orange","Y","12/4/14","9:26",2487,"1vs1",NA,"keep","ipad","3",6
"141204-03-sc",1,9,"bert_cat","bert_cat","bert_dog","control_single","target","distractor","L","bert_cat","Y","12/4/14","9:26",2926,"2vs2",NA,"keep","ipad","3",6
"141204-03-sc",1,10,"bert_ball","bert_ball","bert_truck","control_double","target","distractor","L","bert_ball","Y","12/4/14","9:26",2542,"2vs1",NA,"keep","ipad","3",6
"141204-03-sc",1,11,"bert_flower","bert_flower","bert_teddybear","control_double","target","distractor","L","bert_flower","Y","12/4/14","9:26",1806,"3vs1",NA,"keep","ipad","3",6
"141204-03-sc",1,12,"elmo_truck","elmo_ball","elmo_truck","control_single","distractor","target","R","elmo_truck","Y","12/4/14","9:26",1901,"1vs1",NA,"keep","ipad","3",6
"141204-03-sc",1,13,"bert_bicycle","bert_car","bert_bicycle","control_single","distractor","target","R","bert_bicycle","Y","12/4/14","9:26",1861,"2vs2",NA,"keep","ipad","3",6
"141204-03-sc",1,14,"bert_carrot","bert_banana","bert_carrot","inference","distractor","target","R","bert_carrot","Y","12/4/14","9:26",2214,"2vs1",NA,"keep","ipad","3",6
"141204-03-sc",1,15,"ernie_car","ernie_car","ernie_bicycle","control_single","target","distractor","L","ernie_car","Y","12/4/14","9:26",1392,"1vs1",NA,"keep","ipad","3",6
"141204-03-sc",1,16,"grover_orange","grover_apple","grover_orange","control_double","distractor","target","R","grover_orange","Y","12/4/14","9:26",1355,"2vs1",NA,"keep","ipad","3",6
"141204-04-sc",1,1,"practice1_cow","practice1_cow","practice1_lion","practice","target","distractor","L","practice1_cow","Y","12/4/14","9:40",2964,NA,NA,"keep","ipad","5",6
"141204-04-sc",1,2,"practice2_monkey","practice2_rabbit","practice2_monkey","practice","distractor","target","R","practice2_monkey","Y","12/4/14","9:40",1684,NA,NA,"keep","ipad","5",6
"141204-04-sc",1,3,"elmo_teddybear","elmo_flower","elmo_teddybear","control_single","distractor","target","R","elmo_teddybear","Y","12/4/14","9:40",1550,"2vs2",NA,"keep","ipad","5",6
"141204-04-sc",1,4,"elmo_apple","elmo_apple","elmo_orange","inference","target","distractor","L","elmo_apple","Y","12/4/14","9:40",1823,"3vs1",NA,"keep","ipad","5",6
"141204-04-sc",1,5,"grover_dog","grover_cat","grover_dog","control_double","distractor","target","R","grover_dog","Y","12/4/14","9:40",3124,"3vs1",NA,"keep","ipad","5",6
"141204-04-sc",1,6,"elmo_banana","elmo_banana","elmo_carrot","control_single","target","distractor","L","elmo_banana","Y","12/4/14","9:40",1118,"1vs1",NA,"keep","ipad","5",6
"141204-04-sc",1,7,"grover_car","grover_car","grover_bicycle","inference","target","distractor","L","grover_car","Y","12/4/14","9:40",5615,"3vs1",NA,"keep","ipad","5",6
"141204-04-sc",1,8,"ernie_orange","ernie_apple","ernie_orange","control_single","distractor","target","R","ernie_orange","Y","12/4/14","9:40",1688,"1vs1",NA,"keep","ipad","5",6
"141204-04-sc",1,9,"bert_cat","bert_cat","bert_dog","control_single","target","distractor","L","bert_cat","Y","12/4/14","9:40",1713,"2vs2",NA,"keep","ipad","5",6
"141204-04-sc",1,10,"bert_ball","bert_ball","bert_truck","control_double","target","distractor","L","bert_ball","Y","12/4/14","9:40",1388,"2vs1",NA,"keep","ipad","5",6
"141204-04-sc",1,11,"bert_flower","bert_flower","bert_teddybear","control_double","target","distractor","L","bert_flower","Y","12/4/14","9:40",1225,"3vs1",NA,"keep","ipad","5",6
"141204-04-sc",1,12,"elmo_truck","elmo_ball","elmo_truck","control_single","distractor","target","R","elmo_truck","Y","12/4/14","9:40",1073,"1vs1",NA,"keep","ipad","5",6
"141204-04-sc",1,13,"bert_bicycle","bert_car","bert_bicycle","control_single","distractor","target","R","bert_bicycle","Y","12/4/14","9:40",1486,"2vs2",NA,"keep","ipad","5",6
"141204-04-sc",1,14,"bert_carrot","bert_banana","bert_carrot","inference","distractor","target","R","bert_carrot","Y","12/4/14","9:40",743,"2vs1",NA,"keep","ipad","5",6
"141204-04-sc",1,15,"ernie_car","ernie_car","ernie_bicycle","control_single","target","distractor","L","ernie_car","Y","12/4/14","9:40",4623,"1vs1",NA,"keep","ipad","5",6
"141204-04-sc",1,16,"grover_orange","grover_apple","grover_orange","control_double","distractor","target","R","grover_orange","Y","12/4/14","9:40",911,"2vs1",NA,"keep","ipad","5",6
"141204-05-sc",2,1,"practice1_lion","practice1_cow","practice1_lion","practice","distractor","target","R","practice1_lion","Y","12/4/14","10:07",1755,NA,NA,"keep","ipad","3",6
"141204-05-sc",2,2,"practice2_rabbit","practice2_rabbit","practice2_monkey","practice","target","distractor","L","practice2_rabbit","Y","12/4/14","10:07",1489,NA,NA,"keep","ipad","3",6
"141204-05-sc",2,3,"grover_orange2","grover_apple2","grover_orange2","control_single","distractor","target","R","grover_orange2","Y","12/4/14","10:07",2600,"2vs2",NA,"keep","ipad","3",6
"141204-05-sc",2,4,"bert_dog2","bert_cat2","bert_dog2","inference","distractor","target","R","bert_dog2","Y","12/4/14","10:07",4792,"2vs1",NA,"keep","ipad","3",6
"141204-05-sc",2,5,"bert_car2","bert_car2","bert_bicycle2","control_double","target","distractor","L","bert_car2","Y","12/4/14","10:07",1622,"3vs1",NA,"keep","ipad","3",6
"141204-05-sc",2,6,"bert_teddybear2","bert_flower2","bert_teddybear2","control_single","distractor","target","R","bert_teddybear2","Y","12/4/14","10:07",1556,"2vs2",NA,"keep","ipad","3",6
"141204-05-sc",2,7,"grover_ball2","grover_ball2","grover_truck2","inference","target","distractor","L","grover_ball2","Y","12/4/14","10:07",1954,"2vs1",NA,"keep","ipad","3",6
"141204-05-sc",2,8,"elmo_cat2","elmo_dog2","elmo_cat2","control_single","distractor","target","R","elmo_cat2","Y","12/4/14","10:07",2265,"2vs2",NA,"keep","ipad","3",6
"141204-05-sc",2,9,"grover_car2","grover_car2","grover_bicycle2","control_single","target","distractor","L","grover_car2","Y","12/4/14","10:07",1046,"2vs2",NA,"keep","ipad","3",6
"141204-05-sc",2,10,"grover_carrot2","grover_banana2","grover_carrot2","control_double","distractor","target","R","grover_carrot2","Y","12/4/14","10:07",1931,"2vs1",NA,"keep","ipad","3",6
"141204-05-sc",2,11,"ernie_apple2","ernie_apple2","ernie_orange2","control_double","target","distractor","L","ernie_apple2","Y","12/4/14","10:07",2060,"3vs1",NA,"keep","ipad","3",6
"141204-05-sc",2,12,"bert_banana2","bert_banana2","bert_carrot2","control_single","target","distractor","L","bert_banana2","Y","12/4/14","10:07",2062,"1vs1",NA,"keep","ipad","3",6
"141204-05-sc",2,13,"bert_truck2","bert_ball2","bert_truck2","control_single","distractor","target","R","bert_truck2","Y","12/4/14","10:07",1795,"1vs1",NA,"keep","ipad","3",6
"141204-05-sc",2,14,"grover_flower2","grover_teddybear2","grover_flower2","inference","distractor","target","R","grover_flower2","Y","12/4/14","10:07",2021,"3vs1",NA,"keep","ipad","3",6
"141204-05-sc",2,15,"ernie_flower2","ernie_flower2","ernie_teddybear2","control_single","target","distractor","L","ernie_flower2","Y","12/4/14","10:07",2090,"1vs1",NA,"keep","ipad","3",6
"141204-05-sc",2,16,"ernie_cat2","ernie_cat2","ernie_dog2","control_double","target","distractor","L","ernie_cat2","Y","12/4/14","10:07",1793,"2vs1",NA,"keep","ipad","3",6
"141204-06-sc",2,1,"practice1_lion","practice1_cow","practice1_lion","practice","distractor","target","R","practice1_lion","Y","12/4/14","10:15",1712,NA,NA,"keep","ipad","3",6
"141204-06-sc",2,2,"practice2_rabbit","practice2_rabbit","practice2_monkey","practice","target","distractor","L","practice2_rabbit","Y","12/4/14","10:15",2780,NA,NA,"keep","ipad","3",6
"141204-06-sc",2,3,"grover_orange2","grover_apple2","grover_orange2","control_single","distractor","target","R","grover_orange2","Y","12/4/14","10:15",2140,"2vs2",NA,"keep","ipad","3",6
"141204-06-sc",2,4,"bert_dog2","bert_cat2","bert_dog2","inference","distractor","target","R","bert_dog2","Y","12/4/14","10:15",2575,"2vs1",NA,"keep","ipad","3",6
"141204-06-sc",2,5,"bert_car2","bert_car2","bert_bicycle2","control_double","target","distractor","L","bert_car2","Y","12/4/14","10:15",5626,"3vs1",NA,"keep","ipad","3",6
"141204-06-sc",2,6,"bert_teddybear2","bert_flower2","bert_teddybear2","control_single","distractor","target","R","bert_teddybear2","Y","12/4/14","10:15",1886,"2vs2",NA,"keep","ipad","3",6
"141204-06-sc",2,7,"grover_ball2","grover_ball2","grover_truck2","inference","target","distractor","L","grover_ball2","Y","12/4/14","10:15",2644,"2vs1",NA,"keep","ipad","3",6
"141204-06-sc",2,8,"elmo_cat2","elmo_dog2","elmo_cat2","control_single","distractor","target","R","elmo_cat2","Y","12/4/14","10:15",2080,"2vs2",NA,"keep","ipad","3",6
"141204-06-sc",2,9,"grover_car2","grover_car2","grover_bicycle2","control_single","target","distractor","L","grover_car2","Y","12/4/14","10:15",3306,"2vs2",NA,"keep","ipad","3",6
"141204-06-sc",2,10,"grover_carrot2","grover_banana2","grover_carrot2","control_double","distractor","target","R","grover_carrot2","Y","12/4/14","10:15",2096,"2vs1",NA,"keep","ipad","3",6
"141204-06-sc",2,11,"ernie_apple2","ernie_apple2","ernie_orange2","control_double","target","distractor","L","ernie_apple2","Y","12/4/14","10:15",4955,"3vs1",NA,"keep","ipad","3",6
"141204-06-sc",2,12,"bert_banana2","bert_banana2","bert_carrot2","control_single","target","distractor","L","bert_banana2","Y","12/4/14","10:15",1585,"1vs1",NA,"keep","ipad","3",6
"141204-06-sc",2,13,"bert_truck2","bert_ball2","bert_truck2","control_single","distractor","target","R","bert_truck2","Y","12/4/14","10:15",2372,"1vs1",NA,"keep","ipad","3",6
"141204-06-sc",2,14,"grover_flower2","grover_teddybear2","grover_flower2","inference","distractor","target","R","grover_flower2","Y","12/4/14","10:15",2193,"3vs1",NA,"keep","ipad","3",6
"141204-06-sc",2,15,"ernie_flower2","ernie_flower2","ernie_teddybear2","control_single","target","distractor","L","ernie_flower2","Y","12/4/14","10:15",2316,"1vs1",NA,"keep","ipad","3",6
"141204-06-sc",2,16,"ernie_cat2","ernie_cat2","ernie_dog2","control_double","target","distractor","L","ernie_cat2","Y","12/4/14","10:15",3369,"2vs1",NA,"keep","ipad","3",6
"141209-01-sc",1,1,"practice1_cow","practice1_cow","practice1_lion","practice","target","distractor","L","practice1_cow","Y","12/9/14","1:22",3394,NA,NA,"keep","ipad","3",6
"141209-01-sc",1,2,"practice2_monkey","practice2_rabbit","practice2_monkey","practice","distractor","target","R","practice2_monkey","Y","12/9/14","1:22",2000,NA,NA,"keep","ipad","3",6
"141209-01-sc",1,3,"elmo_teddybear","elmo_flower","elmo_teddybear","control_single","distractor","target","R","elmo_teddybear","Y","12/9/14","1:22",1560,"2vs2",NA,"keep","ipad","3",6
"141209-01-sc",1,4,"elmo_apple","elmo_apple","elmo_orange","inference","target","distractor","L","elmo_apple","Y","12/9/14","1:22",1801,"3vs1",NA,"keep","ipad","3",6
"141209-01-sc",1,5,"grover_dog","grover_cat","grover_dog","control_double","distractor","target","R","grover_dog","Y","12/9/14","1:22",2989,"3vs1",NA,"keep","ipad","3",6
"141209-01-sc",1,6,"elmo_banana","elmo_banana","elmo_carrot","control_single","target","distractor","L","elmo_banana","Y","12/9/14","1:22",1755,"1vs1",NA,"keep","ipad","3",6
"141209-01-sc",1,7,"grover_car","grover_car","grover_bicycle","inference","target","distractor","L","grover_car","Y","12/9/14","1:22",5152,"3vs1",NA,"keep","ipad","3",6
"141209-01-sc",1,8,"ernie_orange","ernie_apple","ernie_orange","control_single","distractor","target","R","ernie_orange","Y","12/9/14","1:22",2071,"1vs1",NA,"keep","ipad","3",6
"141209-01-sc",1,9,"bert_cat","bert_cat","bert_dog","control_single","target","distractor","L","bert_cat","Y","12/9/14","1:22",1876,"2vs2",NA,"keep","ipad","3",6
"141209-01-sc",1,10,"bert_ball","bert_ball","bert_truck","control_double","target","distractor","L","bert_ball","Y","12/9/14","1:22",3940,"2vs1",NA,"keep","ipad","3",6
"141209-01-sc",1,11,"bert_flower","bert_flower","bert_teddybear","control_double","target","distractor","L","bert_flower","Y","12/9/14","1:22",1994,"3vs1",NA,"keep","ipad","3",6
"141209-01-sc",1,12,"elmo_truck","elmo_ball","elmo_truck","control_single","distractor","target","R","elmo_truck","Y","12/9/14","1:22",1405,"1vs1",NA,"keep","ipad","3",6
"141209-01-sc",1,13,"bert_bicycle","bert_car","bert_bicycle","control_single","distractor","target","R","bert_bicycle","Y","12/9/14","1:22",1432,"2vs2",NA,"keep","ipad","3",6
"141209-01-sc",1,14,"bert_carrot","bert_banana","bert_carrot","inference","distractor","target","R","bert_carrot","Y","12/9/14","1:22",1531,"2vs1",NA,"keep","ipad","3",6
"141209-01-sc",1,15,"ernie_car","ernie_car","ernie_bicycle","control_single","target","distractor","L","ernie_car","Y","12/9/14","1:22",2079,"1vs1",NA,"keep","ipad","3",6
"141209-01-sc",1,16,"grover_orange","grover_apple","grover_orange","control_double","distractor","target","R","grover_orange","Y","12/9/14","1:22",1904,"2vs1",NA,"keep","ipad","3",6
"141209-01-sc",1,17,"ernie_teddybear","ernie_flower","ernie_teddybear","inference","distractor","target","R","ernie_teddybear","Y","12/9/14","1:22",1747,"2vs1",NA,"keep","ipad","3",6
"141209-01-sc",1,18,"grover_ball","grover_ball","grover_truck","control_single","target","distractor","L","grover_ball","Y","12/9/14","1:22",2121,"2vs2",NA,"keep","ipad","3",6
"141209-02-sc",2,1,"practice1_lion","practice1_cow","practice1_lion","practice","distractor","target","R","practice1_lion","Y","12/9/14","8:57",8727,NA,NA,"keep","ipad","4",6
"141209-02-sc",2,2,"practice2_rabbit","practice2_rabbit","practice2_monkey","practice","target","distractor","L","practice2_rabbit","Y","12/9/14","8:57",1400,NA,NA,"keep","ipad","4",6
"141209-02-sc",2,3,"grover_orange2","grover_apple2","grover_orange2","control_single","distractor","target","R","grover_orange2","Y","12/9/14","8:57",2085,"2vs2",NA,"keep","ipad","4",6
"141209-02-sc",2,4,"bert_dog2","bert_cat2","bert_dog2","inference","distractor","target","R","bert_dog2","Y","12/9/14","8:57",2613,"2vs1",NA,"keep","ipad","4",6
"141209-02-sc",2,5,"bert_car2","bert_car2","bert_bicycle2","control_double","target","distractor","L","bert_car2","Y","12/9/14","8:57",1639,"3vs1",NA,"keep","ipad","4",6
"141209-02-sc",2,6,"bert_teddybear2","bert_flower2","bert_teddybear2","control_single","distractor","target","R","bert_teddybear2","Y","12/9/14","8:57",1830,"2vs2",NA,"keep","ipad","4",6
"141209-02-sc",2,7,"grover_ball2","grover_ball2","grover_truck2","inference","target","distractor","L","grover_ball2","Y","12/9/14","8:57",2694,"2vs1",NA,"keep","ipad","4",6
"141209-02-sc",2,8,"elmo_cat2","elmo_dog2","elmo_cat2","control_single","distractor","target","R","elmo_cat2","Y","12/9/14","8:57",2660,"2vs2",NA,"keep","ipad","4",6
"141209-02-sc",2,9,"grover_car2","grover_car2","grover_bicycle2","control_single","target","distractor","L","grover_car2","Y","12/9/14","8:57",1786,"2vs2",NA,"keep","ipad","4",6
"141209-02-sc",2,10,"grover_carrot2","grover_banana2","grover_carrot2","control_double","distractor","target","R","grover_carrot2","Y","12/9/14","8:57",1584,"2vs1",NA,"keep","ipad","4",6
"141209-02-sc",2,11,"ernie_apple2","ernie_apple2","ernie_orange2","control_double","target","distractor","L","ernie_apple2","Y","12/9/14","8:57",2287,"3vs1",NA,"keep","ipad","4",6
"141209-02-sc",2,12,"bert_banana2","bert_banana2","bert_carrot2","control_single","target","distractor","L","bert_banana2","Y","12/9/14","8:57",1633,"1vs1",NA,"keep","ipad","4",6
"141209-02-sc",2,13,"bert_truck2","bert_ball2","bert_truck2","control_single","distractor","target","L","bert_ball2","N","12/9/14","8:57",1627,"1vs1",NA,"keep","ipad","4",6
"141209-02-sc",2,14,"grover_flower2","grover_teddybear2","grover_flower2","inference","distractor","target","R","grover_flower2","Y","12/9/14","8:57",1543,"3vs1",NA,"keep","ipad","4",6
"141209-02-sc",2,15,"ernie_flower2","ernie_flower2","ernie_teddybear2","control_single","target","distractor","L","ernie_flower2","Y","12/9/14","8:57",1863,"1vs1",NA,"keep","ipad","4",6
"141209-02-sc",2,16,"ernie_cat2","ernie_cat2","ernie_dog2","control_double","target","distractor","L","ernie_cat2","Y","12/9/14","8:57",1941,"2vs1",NA,"keep","ipad","4",6
"141209-02-sc",2,17,"ernie_bicycle2","ernie_car2","ernie_bicycle2","inference","distractor","target","R","ernie_bicycle2","Y","12/9/14","8:57",1469,"3vs1",NA,"keep","ipad","4",6
"141209-02-sc",2,18,"elmo_apple2","elmo_apple2","elmo_orange2","control_single","target","distractor","L","elmo_apple2","Y","12/9/14","8:57",1170,"1vs1",NA,"keep","ipad","4",6
"141209-03-sc",2,1,"practice1_lion","practice1_cow","practice1_lion","practice","distractor","target","L","practice1_cow","N","12/9/14","9:12",2112,NA,NA,"keep","ipad","3",6
"141209-03-sc",2,2,"practice2_rabbit","practice2_rabbit","practice2_monkey","practice","target","distractor","L","practice2_rabbit","Y","12/9/14","9:12",1668,NA,NA,"keep","ipad","3",6
"141209-03-sc",2,3,"grover_orange2","grover_apple2","grover_orange2","control_single","distractor","target","R","grover_orange2","Y","12/9/14","9:12",2272,"2vs2",NA,"keep","ipad","3",6
"141209-03-sc",2,4,"bert_dog2","bert_cat2","bert_dog2","inference","distractor","target","R","bert_dog2","Y","12/9/14","9:12",2032,"2vs1",NA,"keep","ipad","3",6
"141209-03-sc",2,5,"bert_car2","bert_car2","bert_bicycle2","control_double","target","distractor","L","bert_car2","Y","12/9/14","9:12",2212,"3vs1",NA,"keep","ipad","3",6
"141209-03-sc",2,6,"bert_teddybear2","bert_flower2","bert_teddybear2","control_single","distractor","target","R","bert_teddybear2","Y","12/9/14","9:12",1580,"2vs2",NA,"keep","ipad","3",6
"141209-03-sc",2,7,"grover_ball2","grover_ball2","grover_truck2","inference","target","distractor","L","grover_ball2","Y","12/9/14","9:12",2231,"2vs1",NA,"keep","ipad","3",6
"141209-03-sc",2,8,"elmo_cat2","elmo_dog2","elmo_cat2","control_single","distractor","target","R","elmo_cat2","Y","12/9/14","9:12",2306,"2vs2",NA,"keep","ipad","3",6
"141209-03-sc",2,9,"grover_car2","grover_car2","grover_bicycle2","control_single","target","distractor","L","grover_car2","Y","12/9/14","9:12",1812,"2vs2",NA,"keep","ipad","3",6
"141209-03-sc",2,10,"grover_carrot2","grover_banana2","grover_carrot2","control_double","distractor","target","R","grover_carrot2","Y","12/9/14","9:12",1323,"2vs1",NA,"keep","ipad","3",6
"141209-03-sc",2,11,"ernie_apple2","ernie_apple2","ernie_orange2","control_double","target","distractor","L","ernie_apple2","Y","12/9/14","9:12",1868,"3vs1",NA,"keep","ipad","3",6
"141209-03-sc",2,12,"bert_banana2","bert_banana2","bert_carrot2","control_single","target","distractor","L","bert_banana2","Y","12/9/14","9:12",1383,"1vs1",NA,"keep","ipad","3",6
"141209-03-sc",2,13,"bert_truck2","bert_ball2","bert_truck2","control_single","distractor","target","R","bert_truck2","Y","12/9/14","9:12",2294,"1vs1",NA,"keep","ipad","3",6
"141209-03-sc",2,14,"grover_flower2","grover_teddybear2","grover_flower2","inference","distractor","target","R","grover_flower2","Y","12/9/14","9:12",3974,"3vs1",NA,"keep","ipad","3",6
"141209-03-sc",2,15,"ernie_flower2","ernie_flower2","ernie_teddybear2","control_single","target","distractor","L","ernie_flower2","Y","12/9/14","9:12",1330,"1vs1",NA,"keep","ipad","3",6
"141209-03-sc",2,16,"ernie_cat2","ernie_cat2","ernie_dog2","control_double","target","distractor","L","ernie_cat2","Y","12/9/14","9:12",2560,"2vs1",NA,"keep","ipad","3",6
"141209-03-sc",2,17,"ernie_bicycle2","ernie_car2","ernie_bicycle2","inference","distractor","target","R","ernie_bicycle2","Y","12/9/14","9:12",1929,"3vs1",NA,"keep","ipad","3",6
"141209-03-sc",2,18,"elmo_apple2","elmo_apple2","elmo_orange2","control_single","target","distractor","L","elmo_apple2","Y","12/9/14","9:12",1400,"1vs1",NA,"keep","ipad","3",6
"141209-04-sc",1,1,"practice1_cow","practice1_cow","practice1_lion","practice","target","distractor","L","practice1_cow","Y","12/4/14","9:00",2382,NA,NA,"keep","ipad","5",6
"141209-04-sc",1,2,"practice2_monkey","practice2_rabbit","practice2_monkey","practice","distractor","target","R","practice2_monkey","Y","12/4/14","9:00",1536,NA,NA,"keep","ipad","5",6
"141209-04-sc",1,3,"elmo_teddybear","elmo_flower","elmo_teddybear","control_single","distractor","target","R","elmo_teddybear","Y","12/4/14","9:00",2325,"2vs2",NA,"keep","ipad","5",6
"141209-04-sc",1,4,"elmo_apple","elmo_apple","elmo_orange","inference","target","distractor","L","elmo_apple","Y","12/4/14","9:00",1825,"3vs1",NA,"keep","ipad","5",6
"141209-04-sc",1,5,"grover_dog","grover_cat","grover_dog","control_double","distractor","target","R","grover_dog","Y","12/4/14","9:00",3153,"3vs1",NA,"keep","ipad","5",6
"141209-04-sc",1,6,"elmo_banana","elmo_banana","elmo_carrot","control_single","target","distractor","L","elmo_banana","Y","12/4/14","9:00",1545,"1vs1",NA,"keep","ipad","5",6
"141209-04-sc",1,7,"grover_car","grover_car","grover_bicycle","inference","target","distractor","L","grover_car","Y","12/4/14","9:00",1200,"3vs1",NA,"keep","ipad","5",6
"141209-04-sc",1,8,"ernie_orange","ernie_apple","ernie_orange","control_single","distractor","target","R","ernie_orange","Y","12/4/14","9:00",1522,"1vs1",NA,"keep","ipad","5",6
"141209-04-sc",1,9,"bert_cat","bert_cat","bert_dog","control_single","target","distractor","L","bert_cat","Y","12/4/14","9:00",1776,"2vs2",NA,"keep","ipad","5",6
"141209-04-sc",1,10,"bert_ball","bert_ball","bert_truck","control_double","target","distractor","L","bert_ball","Y","12/4/14","9:00",1602,"2vs1",NA,"keep","ipad","5",6
"141209-04-sc",1,11,"bert_flower","bert_flower","bert_teddybear","control_double","target","distractor","L","bert_flower","Y","12/4/14","9:00",1137,"3vs1",NA,"keep","ipad","5",6
"141209-04-sc",1,12,"elmo_truck","elmo_ball","elmo_truck","control_single","distractor","target","R","elmo_truck","Y","12/4/14","9:00",1416,"1vs1",NA,"keep","ipad","5",6
"141209-04-sc",1,13,"bert_bicycle","bert_car","bert_bicycle","control_single","distractor","target","R","bert_bicycle","Y","12/4/14","9:00",1521,"2vs2",NA,"keep","ipad","5",6
"141209-04-sc",1,14,"bert_carrot","bert_banana","bert_carrot","inference","distractor","target","R","bert_carrot","Y","12/4/14","9:00",1391,"2vs1",NA,"keep","ipad","5",6
"141209-04-sc",1,15,"ernie_car","ernie_car","ernie_bicycle","control_single","target","distractor","L","ernie_car","Y","12/4/14","9:00",1776,"1vs1",NA,"keep","ipad","5",6
"141209-04-sc",1,16,"grover_orange","grover_apple","grover_orange","control_double","distractor","target","R","grover_orange","Y","12/4/14","9:00",1323,"2vs1",NA,"keep","ipad","5",6
"141209-05-sc",2,1,"practice1_lion","practice1_cow","practice1_lion","practice","distractor","target","R","practice1_lion","Y","12/9/14","10:05",3078,NA,NA,"keep","ipad","4",6
"141209-05-sc",2,2,"practice2_rabbit","practice2_rabbit","practice2_monkey","practice","target","distractor","L","practice2_rabbit","Y","12/9/14","10:05",1640,NA,NA,"keep","ipad","4",6
"141209-05-sc",2,3,"grover_orange2","grover_apple2","grover_orange2","control_single","distractor","target","R","grover_orange2","Y","12/9/14","10:05",1456,"2vs2",NA,"keep","ipad","4",6
"141209-05-sc",2,4,"bert_dog2","bert_cat2","bert_dog2","inference","distractor","target","R","bert_dog2","Y","12/9/14","10:05",2145,"2vs1",NA,"keep","ipad","4",6
"141209-05-sc",2,5,"bert_car2","bert_car2","bert_bicycle2","control_double","target","distractor","L","bert_car2","Y","12/9/14","10:05",1577,"3vs1",NA,"keep","ipad","4",6
"141209-05-sc",2,6,"bert_teddybear2","bert_flower2","bert_teddybear2","control_single","distractor","target","R","bert_teddybear2","Y","12/9/14","10:05",1519,"2vs2",NA,"keep","ipad","4",6
"141209-05-sc",2,7,"grover_ball2","grover_ball2","grover_truck2","inference","target","distractor","L","grover_ball2","Y","12/9/14","10:05",1782,"2vs1",NA,"keep","ipad","4",6
"141209-05-sc",2,8,"elmo_cat2","elmo_dog2","elmo_cat2","control_single","distractor","target","R","elmo_cat2","Y","12/9/14","10:05",1350,"2vs2",NA,"keep","ipad","4",6
"141209-05-sc",2,9,"grover_car2","grover_car2","grover_bicycle2","control_single","target","distractor","L","grover_car2","Y","12/9/14","10:05",1509,"2vs2",NA,"keep","ipad","4",6
"141209-05-sc",2,10,"grover_carrot2","grover_banana2","grover_carrot2","control_double","distractor","target","R","grover_carrot2","Y","12/9/14","10:05",1898,"2vs1",NA,"keep","ipad","4",6
"141209-05-sc",2,11,"ernie_apple2","ernie_apple2","ernie_orange2","control_double","target","distractor","L","ernie_apple2","Y","12/9/14","10:05",2229,"3vs1",NA,"keep","ipad","4",6
"141209-05-sc",2,12,"bert_banana2","bert_banana2","bert_carrot2","control_single","target","distractor","L","bert_banana2","Y","12/9/14","10:05",1540,"1vs1",NA,"keep","ipad","4",6
"141209-05-sc",2,13,"bert_truck2","bert_ball2","bert_truck2","control_single","distractor","target","R","bert_truck2","Y","12/9/14","10:05",1252,"1vs1",NA,"keep","ipad","4",6
"141209-05-sc",2,14,"grover_flower2","grover_teddybear2","grover_flower2","inference","distractor","target","R","grover_flower2","Y","12/9/14","10:05",1563,"3vs1",NA,"keep","ipad","4",6
"141209-05-sc",2,15,"ernie_flower2","ernie_flower2","ernie_teddybear2","control_single","target","distractor","L","ernie_flower2","Y","12/9/14","10:05",1681,"1vs1",NA,"keep","ipad","4",6
"141209-05-sc",2,16,"ernie_cat2","ernie_cat2","ernie_dog2","control_double","target","distractor","L","ernie_cat2","Y","12/9/14","10:05",1500,"2vs1",NA,"keep","ipad","4",6
"141209-05-sc",2,17,"ernie_bicycle2","ernie_car2","ernie_bicycle2","inference","distractor","target","R","ernie_bicycle2","Y","12/9/14","10:05",1613,"3vs1",NA,"keep","ipad","4",6
"141209-05-sc",2,18,"elmo_apple2","elmo_apple2","elmo_orange2","control_single","target","distractor","L","elmo_apple2","Y","12/9/14","10:05",1835,"1vs1",NA,"keep","ipad","4",6
"141209-06-sc",2,1,"practice1_lion","practice1_cow","practice1_lion","practice","distractor","target","R","practice1_lion","Y","12/9/14","10:14",2414,NA,NA,"keep","ipad","3",6
"141209-06-sc",2,2,"practice2_rabbit","practice2_rabbit","practice2_monkey","practice","target","distractor","L","practice2_rabbit","Y","12/9/14","10:14",2215,NA,NA,"keep","ipad","3",6
"141209-06-sc",2,3,"grover_orange2","grover_apple2","grover_orange2","control_single","distractor","target","R","grover_orange2","Y","12/9/14","10:14",2286,"2vs2",NA,"keep","ipad","3",6
"141209-06-sc",2,4,"bert_dog2","bert_cat2","bert_dog2","inference","distractor","target","R","bert_dog2","Y","12/9/14","10:14",1705,"2vs1",NA,"keep","ipad","3",6
"141209-06-sc",2,5,"bert_car2","bert_car2","bert_bicycle2","control_double","target","distractor","L","bert_car2","Y","12/9/14","10:14",2938,"3vs1",NA,"keep","ipad","3",6
"141209-06-sc",2,6,"bert_teddybear2","bert_flower2","bert_teddybear2","control_single","distractor","target","R","bert_teddybear2","Y","12/9/14","10:14",1732,"2vs2",NA,"keep","ipad","3",6
"141209-06-sc",2,7,"grover_ball2","grover_ball2","grover_truck2","inference","target","distractor","L","grover_ball2","Y","12/9/14","10:14",3608,"2vs1",NA,"keep","ipad","3",6
"141209-06-sc",2,8,"elmo_cat2","elmo_dog2","elmo_cat2","control_single","distractor","target","R","elmo_cat2","Y","12/9/14","10:14",2066,"2vs2",NA,"keep","ipad","3",6
"141209-06-sc",2,9,"grover_car2","grover_car2","grover_bicycle2","control_single","target","distractor","L","grover_car2","Y","12/9/14","10:14",2058,"2vs2",NA,"keep","ipad","3",6
"141209-06-sc",2,10,"grover_carrot2","grover_banana2","grover_carrot2","control_double","distractor","target","R","grover_carrot2","Y","12/9/14","10:14",1434,"2vs1",NA,"keep","ipad","3",6
"141209-06-sc",2,11,"ernie_apple2","ernie_apple2","ernie_orange2","control_double","target","distractor","L","ernie_apple2","Y","12/9/14","10:14",2225,"3vs1",NA,"keep","ipad","3",6
"141209-06-sc",2,12,"bert_banana2","bert_banana2","bert_carrot2","control_single","target","distractor","L","bert_banana2","Y","12/9/14","10:14",1627,"1vs1",NA,"keep","ipad","3",6
"141209-06-sc",2,13,"bert_truck2","bert_ball2","bert_truck2","control_single","distractor","target","R","bert_truck2","Y","12/9/14","10:14",1773,"1vs1",NA,"keep","ipad","3",6
"141209-06-sc",2,14,"grover_flower2","grover_teddybear2","grover_flower2","inference","distractor","target","R","grover_flower2","Y","12/9/14","10:14",1702,"3vs1",NA,"keep","ipad","3",6
"141209-06-sc",2,15,"ernie_flower2","ernie_flower2","ernie_teddybear2","control_single","target","distractor","L","ernie_flower2","Y","12/9/14","10:14",4194,"1vs1",NA,"keep","ipad","3",6
"141209-06-sc",2,16,"ernie_cat2","ernie_cat2","ernie_dog2","control_double","target","distractor","L","ernie_cat2","Y","12/9/14","10:14",1776,"2vs1",NA,"keep","ipad","3",6
"141209-06-sc",2,17,"ernie_bicycle2","ernie_car2","ernie_bicycle2","inference","distractor","target","R","ernie_bicycle2","Y","12/9/14","10:14",3611,"3vs1",NA,"keep","ipad","3",6
"141209-06-sc",2,18,"elmo_apple2","elmo_apple2","elmo_orange2","control_single","target","distractor","L","elmo_apple2","Y","12/9/14","10:14",2542,"1vs1",NA,"keep","ipad","3",6
"141209-07-sc",1,1,"practice1_cow","practice1_cow","practice1_lion","practice","target","distractor","L","practice1_cow","Y","12/9/14","10:52",7438,NA,NA,"keep","ipad",NA,6
"141209-07-sc",1,2,"practice2_monkey","practice2_rabbit","practice2_monkey","practice","distractor","target","R","practice2_monkey","Y","12/9/14","10:52",12108,NA,NA,"keep","ipad",NA,6
"141209-07-sc",1,3,"elmo_teddybear","elmo_flower","elmo_teddybear","control_single","distractor","target","R","elmo_teddybear","Y","12/9/14","10:52",4711,"2vs2",NA,"keep","ipad",NA,6
"141209-07-sc",1,4,"elmo_apple","elmo_apple","elmo_orange","inference","target","distractor","R","elmo_orange","N","12/9/14","10:52",4836,"3vs1",NA,"keep","ipad",NA,6
"141209-07-sc",1,5,"grover_dog","grover_cat","grover_dog","control_double","distractor","target","L","grover_cat","N","12/9/14","10:52",3516,"3vs1",NA,"keep","ipad",NA,6
"141209-07-sc",1,6,"elmo_banana","elmo_banana","elmo_carrot","control_single","target","distractor","R","elmo_carrot","N","12/9/14","10:52",6480,"1vs1",NA,"keep","ipad",NA,6
"141209-07-sc",1,7,"grover_car","grover_car","grover_bicycle","inference","target","distractor","L","grover_car","Y","12/9/14","10:52",3892,"3vs1",NA,"keep","ipad",NA,6
"141209-07-sc",1,8,"ernie_orange","ernie_apple","ernie_orange","control_single","distractor","target","R","ernie_orange","Y","12/9/14","10:52",1931,"1vs1",NA,"keep","ipad",NA,6
"141209-07-sc",1,9,"bert_cat","bert_cat","bert_dog","control_single","target","distractor","L","bert_cat","Y","12/9/14","10:52",3954,"2vs2",NA,"keep","ipad",NA,6
"141209-07-sc",1,10,"bert_ball","bert_ball","bert_truck","control_double","target","distractor","L","bert_ball","Y","12/9/14","10:52",3624,"2vs1",NA,"keep","ipad",NA,6
"141209-07-sc",1,11,"bert_flower","bert_flower","bert_teddybear","control_double","target","distractor","L","bert_flower","Y","12/9/14","10:52",2141,"3vs1",NA,"keep","ipad",NA,6
"141209-07-sc",1,12,"elmo_truck","elmo_ball","elmo_truck","control_single","distractor","target","R","elmo_truck","Y","12/9/14","10:52",1638,"1vs1",NA,"keep","ipad",NA,6
"141209-07-sc",1,13,"bert_bicycle","bert_car","bert_bicycle","control_single","distractor","target","R","bert_bicycle","Y","12/9/14","10:52",1551,"2vs2",NA,"keep","ipad",NA,6
"141209-07-sc",1,14,"bert_carrot","bert_banana","bert_carrot","inference","distractor","target","R","bert_carrot","Y","12/9/14","10:52",3701,"2vs1",NA,"keep","ipad",NA,6
"141209-07-sc",1,15,"ernie_car","ernie_car","ernie_bicycle","control_single","target","distractor","L","ernie_car","Y","12/9/14","10:52",1285,"1vs1",NA,"keep","ipad",NA,6
"141209-07-sc",1,16,"grover_orange","grover_apple","grover_orange","control_double","distractor","target","R","grover_orange","Y","12/9/14","10:52",6407,"2vs1",NA,"keep","ipad",NA,6
"141209-07-sc",1,17,"ernie_teddybear","ernie_flower","ernie_teddybear","inference","distractor","target","R","ernie_teddybear","Y","12/9/14","10:52",1278,"2vs1",NA,"keep","ipad",NA,6
"141209-07-sc",1,18,"grover_ball","grover_ball","grover_truck","control_single","target","distractor","L","grover_ball","Y","12/9/14","10:52",1510,"2vs2",NA,"keep","ipad",NA,6
"150108-01-sc",1,1,"practice1_cow","practice1_cow","practice1_lion","practice","target","distractor","L","practice1_cow","Y","1/7/15","23:38",3292,NA,NA,"keep","ipad","5",6
"150108-01-sc",1,2,"practice2_monkey","practice2_rabbit","practice2_monkey","practice","distractor","target","R","practice2_monkey","Y","1/7/15","23:38",1613,NA,NA,"keep","ipad","5",6
"150108-01-sc",1,3,"elmo_teddybear","elmo_flower","elmo_teddybear","control_single","distractor","target","R","elmo_teddybear","Y","1/7/15","23:38",2051,"2vs2",NA,"keep","ipad","5",6
"150108-01-sc",1,4,"elmo_apple","elmo_apple","elmo_orange","inference","target","distractor","L","elmo_apple","Y","1/7/15","23:38",2174,"3vs1",NA,"keep","ipad","5",6
"150108-01-sc",1,5,"grover_dog","grover_cat","grover_dog","control_double","distractor","target","R","grover_dog","Y","1/7/15","23:38",3865,"3vs1",NA,"keep","ipad","5",6
"150108-01-sc",1,6,"elmo_banana","elmo_banana","elmo_carrot","control_single","target","distractor","L","elmo_banana","Y","1/7/15","23:38",1380,"1vs1",NA,"keep","ipad","5",6
"150108-01-sc",1,7,"grover_car","grover_car","grover_bicycle","inference","target","distractor","L","grover_car","Y","1/7/15","23:38",2752,"3vs1",NA,"keep","ipad","5",6
"150108-01-sc",1,8,"ernie_orange","ernie_apple","ernie_orange","control_single","distractor","target","R","ernie_orange","Y","1/7/15","23:38",1706,"1vs1",NA,"keep","ipad","5",6
"150108-01-sc",1,9,"bert_cat","bert_cat","bert_dog","control_single","target","distractor","L","bert_cat","Y","1/7/15","23:38",2095,"2vs2",NA,"keep","ipad","5",6
"150108-01-sc",1,10,"bert_ball","bert_ball","bert_truck","control_double","target","distractor","L","bert_ball","Y","1/7/15","23:38",2091,"2vs1",NA,"keep","ipad","5",6
"150108-01-sc",1,11,"bert_flower","bert_flower","bert_teddybear","control_double","target","distractor","L","bert_flower","Y","1/7/15","23:38",1634,"3vs1",NA,"keep","ipad","5",6
"150108-01-sc",1,12,"elmo_truck","elmo_ball","elmo_truck","control_single","distractor","target","L","elmo_ball","N","1/7/15","23:38",1063,"1vs1",NA,"keep","ipad","5",6
"150108-01-sc",1,13,"bert_bicycle","bert_car","bert_bicycle","control_single","distractor","target","R","bert_bicycle","Y","1/7/15","23:38",1164,"2vs2",NA,"keep","ipad","5",6
"150108-01-sc",1,14,"bert_carrot","bert_banana","bert_carrot","inference","distractor","target","R","bert_carrot","Y","1/7/15","23:38",2764,"2vs1",NA,"keep","ipad","5",6
"150108-01-sc",1,15,"ernie_car","ernie_car","ernie_bicycle","control_single","target","distractor","L","ernie_car","Y","1/7/15","23:38",1995,"1vs1",NA,"keep","ipad","5",6
"150108-01-sc",1,16,"grover_orange","grover_apple","grover_orange","control_double","distractor","target","R","grover_orange","Y","1/7/15","23:38",1270,"2vs1",NA,"keep","ipad","5",6
"150108-01-sc",1,17,"ernie_teddybear","ernie_flower","ernie_teddybear","inference","distractor","target","L","ernie_flower","N","1/7/15","23:38",1808,"2vs1",NA,"keep","ipad","5",6
"150108-01-sc",1,18,"grover_ball","grover_ball","grover_truck","control_single","target","distractor","L","grover_ball","Y","1/7/15","23:38",4017,"2vs2",NA,"keep","ipad","5",6
"150109-01-sc",1,1,"practice1_cow","practice1_cow","practice1_lion","practice","target","distractor","R","practice1_lion","N","1/9/15","11:05",5764,NA,NA,NA,NA,NA,NA
"150109-01-sc",1,2,"practice2_monkey","practice2_rabbit","practice2_monkey","practice","distractor","target","R","practice2_monkey","Y","1/9/15","11:05",1979,NA,NA,NA,NA,NA,NA
"150109-01-sc",1,3,"elmo_teddybear","elmo_flower","elmo_teddybear","control_single","distractor","target","R","elmo_teddybear","Y","1/9/15","11:05",2007,"2vs2",NA,NA,NA,NA,NA
"150109-01-sc",1,4,"elmo_apple","elmo_apple","elmo_orange","inference","target","distractor","R","elmo_orange","N","1/9/15","11:05",1936,"3vs1",NA,NA,NA,NA,NA
"150109-01-sc",1,5,"grover_dog","grover_cat","grover_dog","control_double","distractor","target","R","grover_dog","Y","1/9/15","11:05",3185,"3vs1",NA,NA,NA,NA,NA
"150109-01-sc",1,6,"elmo_banana","elmo_banana","elmo_carrot","control_single","target","distractor","R","elmo_carrot","N","1/9/15","11:05",5517,"1vs1",NA,NA,NA,NA,NA
"150109-01-sc",1,7,"grover_car","grover_car","grover_bicycle","inference","target","distractor","R","grover_bicycle","N","1/9/15","11:05",3159,"3vs1",NA,NA,NA,NA,NA
"150109-01-sc",1,8,"ernie_orange","ernie_apple","ernie_orange","control_single","distractor","target","R","ernie_orange","Y","1/9/15","11:05",4495,"1vs1",NA,NA,NA,NA,NA
"150109-01-sc",1,9,"bert_cat","bert_cat","bert_dog","control_single","target","distractor","R","bert_dog","N","1/9/15","11:05",3247,"2vs2",NA,NA,NA,NA,NA
"150109-01-sc",1,10,"bert_ball","bert_ball","bert_truck","control_double","target","distractor","L","bert_ball","Y","1/9/15","11:05",4436,"2vs1",NA,NA,NA,NA,NA
"150109-01-sc",1,11,"bert_flower","bert_flower","bert_teddybear","control_double","target","distractor","R","bert_teddybear","N","1/9/15","11:05",2816,"3vs1",NA,NA,NA,NA,NA
"150109-01-sc",1,12,"elmo_truck","elmo_ball","elmo_truck","control_single","distractor","target","R","elmo_truck","Y","1/9/15","11:05",2790,"1vs1",NA,NA,NA,NA,NA
"150109-01-sc",1,13,"bert_bicycle","bert_car","bert_bicycle","control_single","distractor","target","R","bert_bicycle","Y","1/9/15","11:05",2808,"2vs2",NA,NA,NA,NA,NA
"150109-01-sc",1,14,"bert_carrot","bert_banana","bert_carrot","inference","distractor","target","R","bert_carrot","Y","1/9/15","11:05",3718,"2vs1",NA,NA,NA,NA,NA
"150109-01-sc",1,15,"ernie_car","ernie_car","ernie_bicycle","control_single","target","distractor","R","ernie_bicycle","N","1/9/15","11:05",1734,"1vs1",NA,NA,NA,NA,NA
"150109-01-sc",1,16,"grover_orange","grover_apple","grover_orange","control_double","distractor","target","R","grover_orange","Y","1/9/15","11:05",4477,"2vs1",NA,NA,NA,NA,NA
"150109-01-sc",1,17,"ernie_teddybear","ernie_flower","ernie_teddybear","inference","distractor","target","R","ernie_teddybear","Y","1/9/15","11:05",2528,"2vs1",NA,NA,NA,NA,NA
"150109-01-sc",1,18,"grover_ball","grover_ball","grover_truck","control_single","target","distractor","L","grover_ball","Y","1/9/15","11:05",12611,"2vs2",NA,NA,NA,NA,NA
"150109-02-sc",2,1,"practice1_lion","practice1_cow","practice1_lion","practice","distractor","target","R","practice1_lion","Y","1/9/15","11:12",15480,NA,NA,NA,NA,NA,NA
"150109-02-sc",2,2,"practice2_rabbit","practice2_rabbit","practice2_monkey","practice","target","distractor","L","practice2_rabbit","Y","1/9/15","11:12",6951,NA,NA,NA,NA,NA,NA
"150109-02-sc",2,3,"grover_orange2","grover_apple2","grover_orange2","control_single","distractor","target","R","grover_orange2","Y","1/9/15","11:12",8829,"2vs2",NA,NA,NA,NA,NA
"150109-02-sc",2,4,"bert_dog2","bert_cat2","bert_dog2","inference","distractor","target","R","bert_dog2","Y","1/9/15","11:12",3775,"2vs1",NA,NA,NA,NA,NA
"150109-02-sc",2,5,"bert_car2","bert_car2","bert_bicycle2","control_double","target","distractor","L","bert_car2","Y","1/9/15","11:12",8715,"3vs1",NA,NA,NA,NA,NA
"150109-02-sc",2,6,"bert_teddybear2","bert_flower2","bert_teddybear2","control_single","distractor","target","R","bert_teddybear2","Y","1/9/15","11:12",5502,"2vs2",NA,NA,NA,NA,NA
"150109-02-sc",2,7,"grover_ball2","grover_ball2","grover_truck2","inference","target","distractor","R","grover_truck2","N","1/9/15","11:12",3308,"2vs1",NA,NA,NA,NA,NA
"150109-02-sc",2,8,"elmo_cat2","elmo_dog2","elmo_cat2","control_single","distractor","target","R","elmo_cat2","Y","1/9/15","11:12",2783,"2vs2",NA,NA,NA,NA,NA
"150109-02-sc",2,9,"grover_car2","grover_car2","grover_bicycle2","control_single","target","distractor","L","grover_car2","Y","1/9/15","11:12",4994,"2vs2",NA,NA,NA,NA,NA
"150109-02-sc",2,10,"grover_carrot2","grover_banana2","grover_carrot2","control_double","distractor","target","R","grover_carrot2","Y","1/9/15","11:12",3039,"2vs1",NA,NA,NA,NA,NA
"150109-02-sc",2,11,"ernie_apple2","ernie_apple2","ernie_orange2","control_double","target","distractor","R","ernie_orange2","N","1/9/15","11:12",4865,"3vs1",NA,NA,NA,NA,NA
"150109-02-sc",2,12,"bert_banana2","bert_banana2","bert_carrot2","control_single","target","distractor","L","bert_banana2","Y","1/9/15","11:12",10287,"1vs1",NA,NA,NA,NA,NA
"150109-02-sc",2,13,"bert_truck2","bert_ball2","bert_truck2","control_single","distractor","target","R","bert_truck2","Y","1/9/15","11:12",3401,"1vs1",NA,NA,NA,NA,NA
"150109-02-sc",2,14,"grover_flower2","grover_teddybear2","grover_flower2","inference","distractor","target","L","grover_teddybear2","N","1/9/15","11:12",3646,"3vs1",NA,NA,NA,NA,NA
"150109-02-sc",2,15,"ernie_flower2","ernie_flower2","ernie_teddybear2","control_single","target","distractor","L","ernie_flower2","Y","1/9/15","11:12",2732,"1vs1",NA,NA,NA,NA,NA
"150109-02-sc",2,16,"ernie_cat2","ernie_cat2","ernie_dog2","control_double","target","distractor","L","ernie_cat2","Y","1/9/15","11:12",3498,"2vs1",NA,NA,NA,NA,NA
"150109-02-sc",2,17,"ernie_bicycle2","ernie_car2","ernie_bicycle2","inference","distractor","target","L","ernie_car2","N","1/9/15","11:12",3211,"3vs1",NA,NA,NA,NA,NA
"150109-02-sc",2,18,"elmo_apple2","elmo_apple2","elmo_orange2","control_single","target","distractor","L","elmo_apple2","Y","1/9/15","11:12",2922,"1vs1",NA,NA,NA,NA,NA
"150109-03-sc",1,1,"practice1_cow","practice1_cow","practice1_lion","practice","target","distractor","L","practice1_cow","Y","1/9/15","11:22",8562,NA,NA,NA,NA,NA,NA
"150109-03-sc",1,2,"practice2_monkey","practice2_rabbit","practice2_monkey","practice","distractor","target","R","practice2_monkey","Y","1/9/15","11:22",1860,NA,NA,NA,NA,NA,NA
"150109-03-sc",1,3,"elmo_teddybear","elmo_flower","elmo_teddybear","control_single","distractor","target","R","elmo_teddybear","Y","1/9/15","11:22",2233,"2vs2",NA,NA,NA,NA,NA
"150109-03-sc",1,4,"elmo_apple","elmo_apple","elmo_orange","inference","target","distractor","R","elmo_orange","N","1/9/15","11:22",2670,"3vs1",NA,NA,NA,NA,NA
"150109-03-sc",1,5,"grover_dog","grover_cat","grover_dog","control_double","distractor","target","L","grover_cat","N","1/9/15","11:22",3478,"3vs1",NA,NA,NA,NA,NA
"150109-03-sc",1,6,"elmo_banana","elmo_banana","elmo_carrot","control_single","target","distractor","L","elmo_banana","Y","1/9/15","11:22",25293,"1vs1",NA,NA,NA,NA,NA
"150109-03-sc",1,7,"grover_car","grover_car","grover_bicycle","inference","target","distractor","R","grover_bicycle","N","1/9/15","11:22",513,"3vs1",NA,NA,NA,NA,NA
"150109-03-sc",1,8,"ernie_orange","ernie_apple","ernie_orange","control_single","distractor","target","R","ernie_orange","Y","1/9/15","11:22",502,"1vs1",NA,NA,NA,NA,NA
"150109-03-sc",1,9,"bert_cat","bert_cat","bert_dog","control_single","target","distractor","L","bert_cat","Y","1/9/15","11:22",7177,"2vs2",NA,NA,NA,NA,NA
"150109-03-sc",1,10,"bert_ball","bert_ball","bert_truck","control_double","target","distractor","L","bert_ball","Y","1/9/15","11:22",3899,"2vs1",NA,NA,NA,NA,NA
"150109-03-sc",1,11,"bert_flower","bert_flower","bert_teddybear","control_double","target","distractor","L","bert_flower","Y","1/9/15","11:22",3167,"3vs1",NA,NA,NA,NA,NA
"150109-03-sc",1,12,"elmo_truck","elmo_ball","elmo_truck","control_single","distractor","target","L","elmo_ball","N","1/9/15","11:22",1319,"1vs1",NA,NA,NA,NA,NA
"150109-03-sc",1,13,"bert_bicycle","bert_car","bert_bicycle","control_single","distractor","target","L","bert_car","N","1/9/15","11:22",486,"2vs2",NA,NA,NA,NA,NA
"150109-03-sc",1,14,"bert_carrot","bert_banana","bert_carrot","inference","distractor","target","L","bert_banana","N","1/9/15","11:22",19087,"2vs1",NA,NA,NA,NA,NA
"150109-03-sc",1,15,"ernie_car","ernie_car","ernie_bicycle","control_single","target","distractor","L","ernie_car","Y","1/9/15","11:22",3859,"1vs1",NA,NA,NA,NA,NA
"150109-03-sc",1,16,"grover_orange","grover_apple","grover_orange","control_double","distractor","target","L","grover_apple","N","1/9/15","11:22",5679,"2vs1",NA,NA,NA,NA,NA
"150109-03-sc",1,17,"ernie_teddybear","ernie_flower","ernie_teddybear","inference","distractor","target","L","ernie_flower","N","1/9/15","11:22",2713,"2vs1",NA,NA,NA,NA,NA
"150109-03-sc",1,18,"grover_ball","grover_ball","grover_truck","control_single","target","distractor","L","grover_ball","Y","1/9/15","11:22",1937,"2vs2",NA,NA,NA,NA,NA
"150109-04",1,1,"practice1_cow","practice1_cow","practice1_lion","practice","target","distractor","L","practice1_cow","Y","1/9/15","11:32",9651,NA,NA,NA,NA,NA,NA
"150109-04",1,2,"practice2_monkey","practice2_rabbit","practice2_monkey","practice","distractor","target","R","practice2_monkey","Y","1/9/15","11:32",1604,NA,NA,NA,NA,NA,NA
"150109-04",1,3,"elmo_teddybear","elmo_flower","elmo_teddybear","control_single","distractor","target","L","elmo_flower","N","1/9/15","11:32",4264,"2vs2",NA,NA,NA,NA,NA
"150109-04",1,4,"elmo_apple","elmo_apple","elmo_orange","inference","target","distractor","R","elmo_orange","N","1/9/15","11:32",2419,"3vs1",NA,NA,NA,NA,NA
"150109-04",1,5,"grover_dog","grover_cat","grover_dog","control_double","distractor","target","R","grover_dog","Y","1/9/15","11:32",3400,"3vs1",NA,NA,NA,NA,NA
"150109-04",1,6,"elmo_banana","elmo_banana","elmo_carrot","control_single","target","distractor","L","elmo_banana","Y","1/9/15","11:32",3941,"1vs1",NA,NA,NA,NA,NA
"150109-04",1,7,"grover_car","grover_car","grover_bicycle","inference","target","distractor","L","grover_car","Y","1/9/15","11:32",2200,"3vs1",NA,NA,NA,NA,NA
"150109-04",1,8,"ernie_orange","ernie_apple","ernie_orange","control_single","distractor","target","R","ernie_orange","Y","1/9/15","11:32",5230,"1vs1",NA,NA,NA,NA,NA
"150109-04",1,9,"bert_cat","bert_cat","bert_dog","control_single","target","distractor","L","bert_cat","Y","1/9/15","11:32",4307,"2vs2",NA,NA,NA,NA,NA
"150109-04",1,10,"bert_ball","bert_ball","bert_truck","control_double","target","distractor","L","bert_ball","Y","1/9/15","11:32",2282,"2vs1",NA,NA,NA,NA,NA
"150109-04",1,11,"bert_flower","bert_flower","bert_teddybear","control_double","target","distractor","L","bert_flower","Y","1/9/15","11:32",2571,"3vs1",NA,NA,NA,NA,NA
"150109-04",1,12,"elmo_truck","elmo_ball","elmo_truck","control_single","distractor","target","L","elmo_ball","N","1/9/15","11:32",4045,"1vs1",NA,NA,NA,NA,NA
"150109-04",1,13,"bert_bicycle","bert_car","bert_bicycle","control_single","distractor","target","R","bert_bicycle","Y","1/9/15","11:32",2668,"2vs2",NA,NA,NA,NA,NA
"150109-04",1,14,"bert_carrot","bert_banana","bert_carrot","inference","distractor","target","L","bert_banana","N","1/9/15","11:32",2619,"2vs1",NA,NA,NA,NA,NA
"150109-04",1,15,"ernie_car","ernie_car","ernie_bicycle","control_single","target","distractor","L","ernie_car","Y","1/9/15","11:32",2241,"1vs1",NA,NA,NA,NA,NA
"150109-04",1,16,"grover_orange","grover_apple","grover_orange","control_double","distractor","target","R","grover_orange","Y","1/9/15","11:32",4718,"2vs1",NA,NA,NA,NA,NA
"150109-04",1,17,"ernie_teddybear","ernie_flower","ernie_teddybear","inference","distractor","target","L","ernie_flower","N","1/9/15","11:32",2206,"2vs1",NA,NA,NA,NA,NA
"150109-04",1,18,"grover_ball","grover_ball","grover_truck","control_single","target","distractor","L","grover_ball","Y","1/9/15","11:32",2947,"2vs2",NA,NA,NA,NA,NA
"150109-05",2,1,"practice1_lion","practice1_cow","practice1_lion","practice","distractor","target","R","practice1_lion","Y","1/9/15","11:39",12202,NA,NA,NA,NA,NA,NA
"150109-05",2,2,"practice2_rabbit","practice2_rabbit","practice2_monkey","practice","target","distractor","R","practice2_monkey","N","1/9/15","11:39",5007,NA,NA,NA,NA,NA,NA
"150109-05",2,3,"grover_orange2","grover_apple2","grover_orange2","control_single","distractor","target","R","grover_orange2","Y","1/9/15","11:39",708,"2vs2",NA,NA,NA,NA,NA
"150109-05",2,4,"bert_dog2","bert_cat2","bert_dog2","inference","distractor","target","R","bert_dog2","Y","1/9/15","11:39",9514,"2vs1",NA,NA,NA,NA,NA
"150109-05",2,5,"bert_car2","bert_car2","bert_bicycle2","control_double","target","distractor","R","bert_bicycle2","N","1/9/15","11:39",47585,"3vs1",NA,NA,NA,NA,NA
"150109-05",2,6,"bert_teddybear2","bert_flower2","bert_teddybear2","control_single","distractor","target","L","bert_flower2","N","1/9/15","11:39",101929,"2vs2",NA,NA,NA,NA,NA
"150109-06",1,1,"practice1_cow","practice1_cow","practice1_lion","practice","target","distractor","L","practice1_cow","Y","1/9/15","11:48",4294,NA,NA,NA,NA,NA,NA
"150109-06",1,2,"practice2_monkey","practice2_rabbit","practice2_monkey","practice","distractor","target","R","practice2_monkey","Y","1/9/15","11:48",7134,NA,NA,NA,NA,NA,NA
"150109-06",1,3,"elmo_teddybear","elmo_flower","elmo_teddybear","control_single","distractor","target","L","elmo_flower","N","1/9/15","11:48",14770,"2vs2",NA,NA,NA,NA,NA
"150109-06",1,4,"elmo_apple","elmo_apple","elmo_orange","inference","target","distractor","R","elmo_orange","N","1/9/15","11:48",12571,"3vs1",NA,NA,NA,NA,NA
"150109-06",1,5,"grover_dog","grover_cat","grover_dog","control_single","distractor","target","R","grover_dog","Y","1/9/15","11:48",11540,"3vs1",NA,NA,NA,NA,NA
"150109-06",1,6,"elmo_banana","elmo_banana","elmo_carrot","control_double","target","distractor","L","elmo_banana","Y","1/9/15","11:48",374,"1vs1",NA,NA,NA,NA,NA
"150109-06",1,7,"grover_car","grover_car","grover_bicycle","inference","target","distractor","L","grover_car","Y","1/9/15","11:48",3108,"3vs1",NA,NA,NA,NA,NA
"150109-06",1,8,"ernie_orange","ernie_apple","ernie_orange","control_single","distractor","target","L","ernie_apple","N","1/9/15","11:48",1061,"1vs1",NA,NA,NA,NA,NA
"150109-06",1,9,"bert_cat","bert_cat","bert_dog","control_single","target","distractor","R","bert_dog","N","1/9/15","11:48",7530,"2vs2",NA,NA,NA,NA,NA
"150109-06",1,10,"bert_ball","bert_ball","bert_truck","control_double","target","distractor","L","bert_ball","Y","1/9/15","11:48",467,"2vs1",NA,NA,NA,NA,NA
"150109-06",1,11,"bert_flower","bert_flower","bert_teddybear","control_double","target","distractor","R","bert_teddybear","N","1/9/15","11:48",10744,"3vs1",NA,NA,NA,NA,NA
"150109-06",1,12,"elmo_truck","elmo_ball","elmo_truck","control_single","distractor","target","R","elmo_truck","Y","1/9/15","11:48",46788,"1vs1",NA,NA,NA,NA,NA
"150109-06",1,13,"bert_bicycle","bert_car","bert_bicycle","control_single","distractor","target","R","bert_bicycle","Y","1/9/15","11:48",387,"2vs2",NA,NA,NA,NA,NA
"150109-06",1,14,"bert_carrot","bert_banana","bert_carrot","inference","distractor","target","R","bert_carrot","Y","1/9/15","11:48",20429,"2vs1",NA,NA,NA,NA,NA
"150109-06",1,15,"ernie_car","ernie_car","ernie_bicycle","control_single","target","distractor","R","ernie_bicycle","N","1/9/15","11:48",506,"1vs1",NA,NA,NA,NA,NA
"150109-06",1,16,"grover_orange","grover_apple","grover_orange","control_double","distractor","target","R","grover_orange","Y","1/9/15","11:48",28133,"2vs1",NA,NA,NA,NA,NA
"150109-06",1,17,"ernie_teddybear","ernie_flower","ernie_teddybear","inference","distractor","target","L","ernie_flower","N","1/9/15","11:48",659,"2vs1",NA,NA,NA,NA,NA
"150109-06",1,18,"grover_ball","grover_ball","grover_truck","control_single","target","distractor","R","grover_truck","N","1/9/15","11:48",64324,"2vs2",NA,NA,NA,NA,NA
"150109-07",2,1,"practice1_lion","practice1_cow","practice1_lion","practice","distractor","target","R","practice1_lion","Y","1/9/15","11:59",2779,NA,NA,NA,NA,NA,NA
"150109-07",2,2,"practice2_rabbit","practice2_rabbit","practice2_monkey","practice","target","distractor","R","practice2_monkey","N","1/9/15","11:59",7168,NA,NA,NA,NA,NA,NA
"150109-07",2,3,"grover_orange2","grover_apple2","grover_orange2","control_single","distractor","target","R","grover_orange2","Y","1/9/15","11:59",2167,"2vs2",NA,NA,NA,NA,NA
"150109-07",2,4,"bert_dog2","bert_cat2","bert_dog2","inference","distractor","target","R","bert_dog2","Y","1/9/15","11:59",2868,"2vs1",NA,NA,NA,NA,NA
"150109-07",2,5,"bert_car2","bert_car2","bert_bicycle2","control_double","target","distractor","R","bert_bicycle2","N","1/9/15","11:59",7664,"3vs1",NA,NA,NA,NA,NA
"150109-07",2,6,"bert_teddybear2","bert_flower2","bert_teddybear2","control_single","distractor","target","R","bert_teddybear2","Y","1/9/15","11:59",5285,"2vs2",NA,NA,NA,NA,NA
"150109-07",2,7,"grover_ball2","grover_ball2","grover_truck2","inference","target","distractor","R","grover_truck2","N","1/9/15","11:59",4333,"2vs1",NA,NA,NA,NA,NA
"150109-07",2,8,"elmo_cat2","elmo_dog2","elmo_cat2","control_single","distractor","target","R","elmo_cat2","Y","1/9/15","11:59",2722,"2vs2",NA,NA,NA,NA,NA
"150109-07",2,9,"grover_car2","grover_car2","grover_bicycle2","control_single","target","distractor","R","grover_bicycle2","N","1/9/15","11:59",4892,"2vs2",NA,NA,NA,NA,NA
"150109-07",2,10,"grover_carrot2","grover_banana2","grover_carrot2","control_double","distractor","target","R","grover_carrot2","Y","1/9/15","11:59",3064,"2vs1",NA,NA,NA,NA,NA
"150109-07",2,11,"ernie_apple2","ernie_apple2","ernie_orange2","control_double","target","distractor","R","ernie_orange2","N","1/9/15","11:59",2943,"3vs1",NA,NA,NA,NA,NA
"150109-07",2,12,"bert_banana2","bert_banana2","bert_carrot2","control_single","target","distractor","R","bert_carrot2","N","1/9/15","11:59",2675,"1vs1",NA,NA,NA,NA,NA
"150109-07",2,13,"bert_truck2","bert_ball2","bert_truck2","control_single","distractor","target","R","bert_truck2","Y","1/9/15","11:59",2724,"1vs1",NA,NA,NA,NA,NA
"150109-07",2,14,"grover_flower2","grover_teddybear2","grover_flower2","inference","distractor","target","L","grover_teddybear2","N","1/9/15","11:59",3131,"3vs1",NA,NA,NA,NA,NA
"150109-07",2,15,"ernie_flower2","ernie_flower2","ernie_teddybear2","control_single","target","distractor","L","ernie_flower2","Y","1/9/15","11:59",2094,"1vs1",NA,NA,NA,NA,NA
"150109-07",2,16,"ernie_cat2","ernie_cat2","ernie_dog2","control_double","target","distractor","L","ernie_cat2","Y","1/9/15","11:59",390,"2vs1",NA,NA,NA,NA,NA
"150109-07",2,17,"ernie_bicycle2","ernie_car2","ernie_bicycle2","inference","distractor","target","R","ernie_bicycle2","Y","1/9/15","11:59",3344,"3vs1",NA,NA,NA,NA,NA
"150109-07",2,18,"elmo_apple2","elmo_apple2","elmo_orange2","control_single","target","distractor","L","elmo_apple2","Y","1/9/15","11:59",3497,"1vs1",NA,NA,NA,NA,NA
"150109-08",2,1,"practice1_lion","practice1_cow","practice1_lion","practice","distractor","target","R","practice1_lion","Y","1/9/15","12:18",2438,NA,NA,NA,NA,NA,NA
"150109-08",2,2,"practice2_rabbit","practice2_rabbit","practice2_monkey","practice","target","distractor","L","practice2_rabbit","Y","1/9/15","12:18",1618,NA,NA,NA,NA,NA,NA
"150109-08",2,3,"grover_orange2","grover_apple2","grover_orange2","control_single","distractor","target","R","grover_orange2","Y","1/9/15","12:18",2928,"2vs2",NA,NA,NA,NA,NA
"150109-08",2,4,"bert_dog2","bert_cat2","bert_dog2","inference","distractor","target","R","bert_dog2","Y","1/9/15","12:18",2619,"2vs1",NA,NA,NA,NA,NA
"150109-08",2,5,"bert_car2","bert_car2","bert_bicycle2","control_double","target","distractor","L","bert_car2","Y","1/9/15","12:18",1278,"3vs1",NA,NA,NA,NA,NA
"150109-08",2,6,"bert_teddybear2","bert_flower2","bert_teddybear2","control_single","distractor","target","R","bert_teddybear2","Y","1/9/15","12:18",1074,"2vs2",NA,NA,NA,NA,NA
"150109-08",2,7,"grover_ball2","grover_ball2","grover_truck2","inference","target","distractor","L","grover_ball2","Y","1/9/15","12:18",1850,"2vs1",NA,NA,NA,NA,NA
"150109-08",2,8,"elmo_cat2","elmo_dog2","elmo_cat2","control_single","distractor","target","R","elmo_cat2","Y","1/9/15","12:18",1281,"2vs2",NA,NA,NA,NA,NA
"150109-08",2,9,"grover_car2","grover_car2","grover_bicycle2","control_single","target","distractor","L","grover_car2","Y","1/9/15","12:18",1353,"2vs2",NA,NA,NA,NA,NA
"150109-08",2,10,"grover_carrot2","grover_banana2","grover_carrot2","control_double","distractor","target","R","grover_carrot2","Y","1/9/15","12:18",1591,"2vs1",NA,NA,NA,NA,NA
"150109-08",2,11,"ernie_apple2","ernie_apple2","ernie_orange2","control_double","target","distractor","L","ernie_apple2","Y","1/9/15","12:18",1895,"3vs1",NA,NA,NA,NA,NA
"150109-08",2,12,"bert_banana2","bert_banana2","bert_carrot2","control_single","target","distractor","L","bert_banana2","Y","1/9/15","12:18",1425,"1vs1",NA,NA,NA,NA,NA
"150109-08",2,13,"bert_truck2","bert_ball2","bert_truck2","control_single","distractor","target","R","bert_truck2","Y","1/9/15","12:18",1158,"1vs1",NA,NA,NA,NA,NA
"150109-08",2,14,"grover_flower2","grover_teddybear2","grover_flower2","inference","distractor","target","R","grover_flower2","Y","1/9/15","12:18",1644,"3vs1",NA,NA,NA,NA,NA
"150109-08",2,15,"ernie_flower2","ernie_flower2","ernie_teddybear2","control_single","target","distractor","L","ernie_flower2","Y","1/9/15","12:18",1594,"1vs1",NA,NA,NA,NA,NA
"150109-08",2,16,"ernie_cat2","ernie_cat2","ernie_dog2","control_double","target","distractor","L","ernie_cat2","Y","1/9/15","12:18",1502,"2vs1",NA,NA,NA,NA,NA
"150109-08",2,17,"ernie_bicycle2","ernie_car2","ernie_bicycle2","inference","distractor","target","R","ernie_bicycle2","Y","1/9/15","12:18",1928,"3vs1",NA,NA,NA,NA,NA
"150109-08",2,18,"elmo_apple2","elmo_apple2","elmo_orange2","control_single","target","distractor","L","elmo_apple2","Y","1/9/15","12:18",1573,"1vs1",NA,NA,NA,NA,NA
"150115-01-sc",2,1,"practice1_lion","practice1_cow","practice1_lion","practice","distractor","target","R","practice1_lion","Y","1/8/15","9:18",1635,NA,NA,"keep","ipad","4",6
"150115-01-sc",2,2,"practice2_rabbit","practice2_rabbit","practice2_monkey","practice","target","distractor","L","practice2_rabbit","Y","1/8/15","9:18",1446,NA,NA,"keep","ipad","4",6
"150115-01-sc",2,3,"grover_orange2","grover_apple2","grover_orange2","control_single","distractor","target","R","grover_orange2","Y","1/8/15","9:18",1624,"2vs2",NA,"keep","ipad","4",6
"150115-01-sc",2,4,"bert_dog2","bert_cat2","bert_dog2","inference","distractor","target","R","bert_dog2","Y","1/8/15","9:18",2199,"2vs1",NA,"keep","ipad","4",6
"150115-01-sc",2,5,"bert_car2","bert_car2","bert_bicycle2","control_double","target","distractor","L","bert_car2","Y","1/8/15","9:18",1975,"3vs1",NA,"keep","ipad","4",6
"150115-01-sc",2,6,"bert_teddybear2","bert_flower2","bert_teddybear2","control_single","distractor","target","R","bert_teddybear2","Y","1/8/15","9:18",1573,"2vs2",NA,"keep","ipad","4",6
"150115-01-sc",2,7,"grover_ball2","grover_ball2","grover_truck2","inference","target","distractor","L","grover_ball2","Y","1/8/15","9:18",1855,"2vs1",NA,"keep","ipad","4",6
"150115-01-sc",2,8,"elmo_cat2","elmo_dog2","elmo_cat2","control_single","distractor","target","R","elmo_cat2","Y","1/8/15","9:18",1187,"2vs2",NA,"keep","ipad","4",6
"150115-01-sc",2,9,"grover_car2","grover_car2","grover_bicycle2","control_single","target","distractor","L","grover_car2","Y","1/8/15","9:18",1900,"2vs2",NA,"keep","ipad","4",6
"150115-01-sc",2,10,"grover_carrot2","grover_banana2","grover_carrot2","control_double","distractor","target","R","grover_carrot2","Y","1/8/15","9:18",1545,"2vs1",NA,"keep","ipad","4",6
"150115-01-sc",2,11,"ernie_apple2","ernie_apple2","ernie_orange2","control_double","target","distractor","L","ernie_apple2","Y","1/8/15","9:18",2266,"3vs1",NA,"keep","ipad","4",6
"150115-01-sc",2,12,"bert_banana2","bert_banana2","bert_carrot2","control_single","target","distractor","L","bert_banana2","Y","1/8/15","9:18",1481,"1vs1",NA,"keep","ipad","4",6
"150115-01-sc",2,13,"bert_truck2","bert_ball2","bert_truck2","control_single","distractor","target","R","bert_truck2","Y","1/8/15","9:18",2065,"1vs1",NA,"keep","ipad","4",6
"150115-01-sc",2,14,"grover_flower2","grover_teddybear2","grover_flower2","inference","distractor","target","R","grover_flower2","Y","1/8/15","9:18",1343,"3vs1",NA,"keep","ipad","4",6
"150115-01-sc",2,15,"ernie_flower2","ernie_flower2","ernie_teddybear2","control_single","target","distractor","L","ernie_flower2","Y","1/8/15","9:18",1319,"1vs1",NA,"keep","ipad","4",6
"150115-01-sc",2,16,"ernie_cat2","ernie_cat2","ernie_dog2","control_double","target","distractor","L","ernie_cat2","Y","1/8/15","9:18",1107,"2vs1",NA,"keep","ipad","4",6
"150115-01-sc",2,17,"ernie_bicycle2","ernie_car2","ernie_bicycle2","inference","distractor","target","R","ernie_bicycle2","Y","1/8/15","9:18",1513,"3vs1",NA,"keep","ipad","4",6
"150115-01-sc",2,18,"elmo_apple2","elmo_apple2","elmo_orange2","control_single","target","distractor","L","elmo_apple2","Y","1/8/15","9:18",2144,"1vs1",NA,"keep","ipad","4",6
"150115-02-sc",1,1,"practice1_cow","practice1_cow","practice1_lion","practice","target","distractor","L","practice1_cow","Y","1/15/15","13:38",6726,NA,NA,"keep","ipad","3",6
"150115-02-sc",1,2,"practice2_monkey","practice2_rabbit","practice2_monkey","practice","distractor","target","R","practice2_monkey","Y","1/15/15","13:38",8991,NA,NA,"keep","ipad","3",6
"150115-02-sc",1,3,"elmo_teddybear","elmo_flower","elmo_teddybear","control_single","distractor","target","R","elmo_teddybear","Y","1/15/15","13:38",3393,"2vs2",NA,"keep","ipad","3",6
"150115-02-sc",1,4,"elmo_apple","elmo_apple","elmo_orange","inference","target","distractor","L","elmo_apple","Y","1/15/15","13:38",11699,"3vs1",NA,"keep","ipad","3",6
"150115-02-sc",1,5,"grover_dog","grover_cat","grover_dog","control_double","distractor","target","R","grover_dog","Y","1/15/15","13:38",3135,"3vs1",NA,"keep","ipad","3",6
"150115-02-sc",1,6,"elmo_banana","elmo_banana","elmo_carrot","control_single","target","distractor","L","elmo_banana","Y","1/15/15","13:38",2178,"1vs1",NA,"keep","ipad","3",6
"150115-02-sc",1,7,"grover_car","grover_car","grover_bicycle","inference","target","distractor","R","grover_bicycle","N","1/15/15","13:38",8961,"3vs1",NA,"keep","ipad","3",6
"150115-02-sc",1,8,"ernie_orange","ernie_apple","ernie_orange","control_single","distractor","target","R","ernie_orange","Y","1/15/15","13:38",1771,"1vs1",NA,"keep","ipad","3",6
"150115-02-sc",1,9,"bert_cat","bert_cat","bert_dog","control_single","target","distractor","L","bert_cat","Y","1/15/15","13:38",2663,"2vs2",NA,"keep","ipad","3",6
"150115-02-sc",1,10,"bert_ball","bert_ball","bert_truck","control_double","target","distractor","L","bert_ball","Y","1/15/15","13:38",2975,"2vs1",NA,"keep","ipad","3",6
"150115-02-sc",1,11,"bert_flower","bert_flower","bert_teddybear","control_double","target","distractor","L","bert_flower","Y","1/15/15","13:38",2144,"3vs1",NA,"keep","ipad","3",6
"150115-02-sc",1,12,"elmo_truck","elmo_ball","elmo_truck","control_single","distractor","target","R","elmo_truck","Y","1/15/15","13:38",3067,"1vs1",NA,"keep","ipad","3",6
"150115-02-sc",1,13,"bert_bicycle","bert_car","bert_bicycle","control_single","distractor","target","R","bert_bicycle","Y","1/15/15","13:38",2127,"2vs2",NA,"keep","ipad","3",6
"150115-02-sc",1,14,"bert_carrot","bert_banana","bert_carrot","inference","distractor","target","R","bert_carrot","Y","1/15/15","13:38",4926,"2vs1",NA,"keep","ipad","3",6
"150115-02-sc",1,15,"ernie_car","ernie_car","ernie_bicycle","control_single","target","distractor","L","ernie_car","Y","1/15/15","13:38",9185,"1vs1",NA,"keep","ipad","3",6
"150115-02-sc",1,16,"grover_orange","grover_apple","grover_orange","control_double","distractor","target","R","grover_orange","Y","1/15/15","13:38",2162,"2vs1",NA,"keep","ipad","3",6
"150115-02-sc",1,17,"ernie_teddybear","ernie_flower","ernie_teddybear","inference","distractor","target","R","ernie_teddybear","Y","1/15/15","13:38",1326,"2vs1",NA,"keep","ipad","3",6
"150115-02-sc",1,18,"grover_ball","grover_ball","grover_truck","control_single","target","distractor","L","grover_ball","Y","1/15/15","13:38",5135,"2vs2",NA,"keep","ipad","3",6
"150115-03-sc",2,1,"practice1_lion","practice1_cow","practice1_lion","practice","distractor","target","R","practice1_lion","Y","1/15/15","13:58",5666,NA,NA,"keep","ipad","5",6
"150115-03-sc",2,2,"practice2_rabbit","practice2_rabbit","practice2_monkey","practice","target","distractor","L","practice2_rabbit","Y","1/15/15","13:58",3745,NA,NA,"keep","ipad","5",6
"150115-03-sc",2,3,"grover_orange2","grover_apple2","grover_orange2","control_single","distractor","target","R","grover_orange2","Y","1/15/15","13:58",2430,"2vs2",NA,"keep","ipad","5",6
"150115-03-sc",2,4,"bert_dog2","bert_cat2","bert_dog2","inference","distractor","target","R","bert_dog2","Y","1/15/15","13:58",3677,"2vs1",NA,"keep","ipad","5",6
"150115-03-sc",2,5,"bert_car2","bert_car2","bert_bicycle2","control_double","target","distractor","L","bert_car2","Y","1/15/15","13:58",1489,"3vs1",NA,"keep","ipad","5",6
"150115-03-sc",2,6,"bert_teddybear2","bert_flower2","bert_teddybear2","control_single","distractor","target","R","bert_teddybear2","Y","1/15/15","13:58",1434,"2vs2",NA,"keep","ipad","5",6
"150115-03-sc",2,7,"grover_ball2","grover_ball2","grover_truck2","inference","target","distractor","L","grover_ball2","Y","1/15/15","13:58",3401,"2vs1",NA,"keep","ipad","5",6
"150115-03-sc",2,8,"elmo_cat2","elmo_dog2","elmo_cat2","control_single","distractor","target","R","elmo_cat2","Y","1/15/15","13:58",1940,"2vs2",NA,"keep","ipad","5",6
"150115-03-sc",2,9,"grover_car2","grover_car2","grover_bicycle2","control_single","target","distractor","L","grover_car2","Y","1/15/15","13:58",1312,"2vs2",NA,"keep","ipad","5",6
"150115-03-sc",2,10,"grover_carrot2","grover_banana2","grover_carrot2","control_double","distractor","target","R","grover_carrot2","Y","1/15/15","13:58",2084,"2vs1",NA,"keep","ipad","5",6
"150115-03-sc",2,11,"ernie_apple2","ernie_apple2","ernie_orange2","control_double","target","distractor","L","ernie_apple2","Y","1/15/15","13:58",2352,"3vs1",NA,"keep","ipad","5",6
"150115-03-sc",2,12,"bert_banana2","bert_banana2","bert_carrot2","control_single","target","distractor","L","bert_banana2","Y","1/15/15","13:58",1611,"1vs1",NA,"keep","ipad","5",6
"150115-03-sc",2,13,"bert_truck2","bert_ball2","bert_truck2","control_single","distractor","target","R","bert_truck2","Y","1/15/15","13:58",1891,"1vs1",NA,"keep","ipad","5",6
"150115-03-sc",2,14,"grover_flower2","grover_teddybear2","grover_flower2","inference","distractor","target","R","grover_flower2","Y","1/15/15","13:58",2447,"3vs1",NA,"keep","ipad","5",6
"150115-03-sc",2,15,"ernie_flower2","ernie_flower2","ernie_teddybear2","control_single","target","distractor","L","ernie_flower2","Y","1/15/15","13:58",1883,"1vs1",NA,"keep","ipad","5",6
"150115-03-sc",2,16,"ernie_cat2","ernie_cat2","ernie_dog2","control_double","target","distractor","L","ernie_cat2","Y","1/15/15","13:58",1703,"2vs1",NA,"keep","ipad","5",6
"150115-03-sc",2,17,"ernie_bicycle2","ernie_car2","ernie_bicycle2","inference","distractor","target","R","ernie_bicycle2","Y","1/15/15","13:58",2887,"3vs1",NA,"keep","ipad","5",6
"150115-03-sc",2,18,"elmo_apple2","elmo_apple2","elmo_orange2","control_single","target","distractor","L","elmo_apple2","Y","1/15/15","13:58",1479,"1vs1",NA,"keep","ipad","5",6
"150115-04-sc",2,1,"practice1_lion","practice1_cow","practice1_lion","practice","distractor","target","R","practice1_lion","Y","1/15/15","14:05",1902,NA,NA,"keep","ipad","5",6
"150115-04-sc",2,2,"practice2_rabbit","practice2_rabbit","practice2_monkey","practice","target","distractor","L","practice2_rabbit","Y","1/15/15","14:05",1427,NA,NA,"keep","ipad","5",6
"150115-04-sc",2,3,"grover_orange2","grover_apple2","grover_orange2","control_single","distractor","target","R","grover_orange2","Y","1/15/15","14:05",1783,"2vs2",NA,"keep","ipad","5",6
"150115-04-sc",2,4,"bert_dog2","bert_cat2","bert_dog2","inference","distractor","target","R","bert_dog2","Y","1/15/15","14:05",2061,"2vs1",NA,"keep","ipad","5",6
"150115-04-sc",2,5,"bert_car2","bert_car2","bert_bicycle2","control_double","target","distractor","L","bert_car2","Y","1/15/15","14:05",1981,"3vs1",NA,"keep","ipad","5",6
"150115-04-sc",2,6,"bert_teddybear2","bert_flower2","bert_teddybear2","control_single","distractor","target","R","bert_teddybear2","Y","1/15/15","14:05",1742,"2vs2",NA,"keep","ipad","5",6
"150115-04-sc",2,7,"grover_ball2","grover_ball2","grover_truck2","inference","target","distractor","L","grover_ball2","Y","1/15/15","14:05",4076,"2vs1",NA,"keep","ipad","5",6
"150115-04-sc",2,8,"elmo_cat2","elmo_dog2","elmo_cat2","control_single","distractor","target","R","elmo_cat2","Y","1/15/15","14:05",2198,"2vs2",NA,"keep","ipad","5",6
"150115-04-sc",2,9,"grover_car2","grover_car2","grover_bicycle2","control_single","target","distractor","L","grover_car2","Y","1/15/15","14:05",4305,"2vs2",NA,"keep","ipad","5",6
"150115-04-sc",2,10,"grover_carrot2","grover_banana2","grover_carrot2","control_double","distractor","target","R","grover_carrot2","Y","1/15/15","14:05",3492,"2vs1",NA,"keep","ipad","5",6
"150115-04-sc",2,11,"ernie_apple2","ernie_apple2","ernie_orange2","control_double","target","distractor","L","ernie_apple2","Y","1/15/15","14:05",2210,"3vs1",NA,"keep","ipad","5",6
"150115-04-sc",2,12,"bert_banana2","bert_banana2","bert_carrot2","control_single","target","distractor","L","bert_banana2","Y","1/15/15","14:05",2316,"1vs1",NA,"keep","ipad","5",6
"150115-04-sc",2,13,"bert_truck2","bert_ball2","bert_truck2","control_single","distractor","target","R","bert_truck2","Y","1/15/15","14:05",3535,"1vs1",NA,"keep","ipad","5",6
"150115-04-sc",2,14,"grover_flower2","grover_teddybear2","grover_flower2","inference","distractor","target","R","grover_flower2","Y","1/15/15","14:05",3281,"3vs1",NA,"keep","ipad","5",6
"150115-04-sc",2,15,"ernie_flower2","ernie_flower2","ernie_teddybear2","control_single","target","distractor","L","ernie_flower2","Y","1/15/15","14:05",1705,"1vs1",NA,"keep","ipad","5",6
"150115-04-sc",2,16,"ernie_cat2","ernie_cat2","ernie_dog2","control_double","target","distractor","L","ernie_cat2","Y","1/15/15","14:05",2287,"2vs1",NA,"keep","ipad","5",6
"150115-04-sc",2,17,"ernie_bicycle2","ernie_car2","ernie_bicycle2","inference","distractor","target","R","ernie_bicycle2","Y","1/15/15","14:05",1879,"3vs1",NA,"keep","ipad","5",6
"150115-04-sc",2,18,"elmo_apple2","elmo_apple2","elmo_orange2","control_single","target","distractor","L","elmo_apple2","Y","1/15/15","14:05",1391,"1vs1",NA,"keep","ipad","5",6
"150115-05-sc",1,1,"practice1_cow","practice1_cow","practice1_lion","practice","target","distractor","L","practice1_cow","Y","1/15/15","14:12",1871,NA,NA,"keep","ipad","5",6
"150115-05-sc",1,2,"practice2_monkey","practice2_rabbit","practice2_monkey","practice","distractor","target","R","practice2_monkey","Y","1/15/15","14:12",1765,NA,NA,"keep","ipad","5",6
"150115-05-sc",1,3,"elmo_teddybear","elmo_flower","elmo_teddybear","control_single","distractor","target","R","elmo_teddybear","Y","1/15/15","14:12",1937,"2vs2",NA,"keep","ipad","5",6
"150115-05-sc",1,4,"elmo_apple","elmo_apple","elmo_orange","inference","target","distractor","L","elmo_apple","Y","1/15/15","14:12",1768,"3vs1",NA,"keep","ipad","5",6
"150115-05-sc",1,5,"grover_dog","grover_cat","grover_dog","control_double","distractor","target","R","grover_dog","Y","1/15/15","14:12",3864,"3vs1",NA,"keep","ipad","5",6
"150115-05-sc",1,6,"elmo_banana","elmo_banana","elmo_carrot","control_single","target","distractor","R","elmo_carrot","N","1/15/15","14:12",2115,"1vs1",NA,"keep","ipad","5",6
"150115-05-sc",1,7,"grover_car","grover_car","grover_bicycle","inference","target","distractor","L","grover_car","Y","1/15/15","14:12",1718,"3vs1",NA,"keep","ipad","5",6
"150115-05-sc",1,8,"ernie_orange","ernie_apple","ernie_orange","control_single","distractor","target","R","ernie_orange","Y","1/15/15","14:12",1777,"1vs1",NA,"keep","ipad","5",6
"150115-05-sc",1,9,"bert_cat","bert_cat","bert_dog","control_single","target","distractor","L","bert_cat","Y","1/15/15","14:12",1539,"2vs2",NA,"keep","ipad","5",6
"150115-05-sc",1,10,"bert_ball","bert_ball","bert_truck","control_double","target","distractor","L","bert_ball","Y","1/15/15","14:12",1316,"2vs1",NA,"keep","ipad","5",6
"150115-05-sc",1,11,"bert_flower","bert_flower","bert_teddybear","control_double","target","distractor","L","bert_flower","Y","1/15/15","14:12",1547,"3vs1",NA,"keep","ipad","5",6
"150115-05-sc",1,12,"elmo_truck","elmo_ball","elmo_truck","control_single","distractor","target","R","elmo_truck","Y","1/15/15","14:12",1462,"1vs1",NA,"keep","ipad","5",6
"150115-05-sc",1,13,"bert_bicycle","bert_car","bert_bicycle","control_single","distractor","target","R","bert_bicycle","Y","1/15/15","14:12",3259,"2vs2",NA,"keep","ipad","5",6
"150115-05-sc",1,14,"bert_carrot","bert_banana","bert_carrot","inference","distractor","target","R","bert_carrot","Y","1/15/15","14:12",19311,"2vs1",NA,"keep","ipad","5",6
"150115-05-sc",1,15,"ernie_car","ernie_car","ernie_bicycle","control_single","target","distractor","L","ernie_car","Y","1/15/15","14:12",1776,"1vs1",NA,"keep","ipad","5",6
"150115-05-sc",1,16,"grover_orange","grover_apple","grover_orange","control_double","distractor","target","L","grover_apple","N","1/15/15","14:12",3550,"2vs1",NA,"keep","ipad","5",6
"150115-05-sc",1,17,"ernie_teddybear","ernie_flower","ernie_teddybear","inference","distractor","target","R","ernie_teddybear","Y","1/15/15","14:12",2255,"2vs1",NA,"keep","ipad","5",6
"150115-05-sc",1,18,"grover_ball","grover_ball","grover_truck","control_single","target","distractor","L","grover_ball","Y","1/15/15","14:12",1734,"2vs2",NA,"keep","ipad","5",6
"150115-06-sc",2,1,"practice1_lion","practice1_cow","practice1_lion","practice","distractor","target","L","practice1_cow","N","1/15/15","15:12",5138,NA,NA,"keep","ipad","4",6
"150115-06-sc",2,2,"practice2_rabbit","practice2_rabbit","practice2_monkey","practice","target","distractor","L","practice2_rabbit","Y","1/15/15","15:12",1397,NA,NA,"keep","ipad","4",6
"150115-06-sc",2,3,"grover_orange2","grover_apple2","grover_orange2","control_single","distractor","target","L","grover_apple2","N","1/15/15","15:12",1576,"2vs2",NA,"keep","ipad","4",6
"150115-06-sc",2,4,"bert_dog2","bert_cat2","bert_dog2","inference","distractor","target","L","bert_cat2","N","1/15/15","15:12",526,"2vs1",NA,"keep","ipad","4",6
"150115-06-sc",2,5,"bert_car2","bert_car2","bert_bicycle2","control_double","target","distractor","L","bert_car2","Y","1/15/15","15:12",1724,"3vs1",NA,"keep","ipad","4",6
"150115-06-sc",2,6,"bert_teddybear2","bert_flower2","bert_teddybear2","control_single","distractor","target","L","bert_flower2","N","1/15/15","15:12",1304,"2vs2",NA,"keep","ipad","4",6
"150115-06-sc",2,7,"grover_ball2","grover_ball2","grover_truck2","inference","target","distractor","R","grover_truck2","N","1/15/15","15:12",2679,"2vs1",NA,"keep","ipad","4",6
"150115-06-sc",2,8,"elmo_cat2","elmo_dog2","elmo_cat2","control_single","distractor","target","L","elmo_dog2","N","1/15/15","15:12",6113,"2vs2",NA,"keep","ipad","4",6
"150115-06-sc",2,9,"grover_car2","grover_car2","grover_bicycle2","control_single","target","distractor","L","grover_car2","Y","1/15/15","15:12",2192,"2vs2",NA,"keep","ipad","4",6
"150115-06-sc",2,10,"grover_carrot2","grover_banana2","grover_carrot2","control_double","distractor","target","L","grover_banana2","N","1/15/15","15:12",2647,"2vs1",NA,"keep","ipad","4",6
"150115-06-sc",2,11,"ernie_apple2","ernie_apple2","ernie_orange2","control_double","target","distractor","R","ernie_orange2","N","1/15/15","15:12",1717,"3vs1",NA,"keep","ipad","4",6
"150115-06-sc",2,12,"bert_banana2","bert_banana2","bert_carrot2","control_single","target","distractor","L","bert_banana2","Y","1/15/15","15:12",5290,"1vs1",NA,"keep","ipad","4",6
"150115-06-sc",2,13,"bert_truck2","bert_ball2","bert_truck2","control_single","distractor","target","R","bert_truck2","Y","1/15/15","15:12",3340,"1vs1",NA,"keep","ipad","4",6
"150115-06-sc",2,14,"grover_flower2","grover_teddybear2","grover_flower2","inference","distractor","target","R","grover_flower2","Y","1/15/15","15:12",3248,"3vs1",NA,"keep","ipad","4",6
"150115-06-sc",2,15,"ernie_flower2","ernie_flower2","ernie_teddybear2","control_single","target","distractor","L","ernie_flower2","Y","1/15/15","15:12",2460,"1vs1",NA,"keep","ipad","4",6
"150115-06-sc",2,16,"ernie_cat2","ernie_cat2","ernie_dog2","control_double","target","distractor","R","ernie_dog2","N","1/15/15","15:12",1344,"2vs1",NA,"keep","ipad","4",6
"150115-06-sc",2,17,"ernie_bicycle2","ernie_car2","ernie_bicycle2","inference","distractor","target","R","ernie_bicycle2","Y","1/15/15","15:12",7076,"3vs1",NA,"keep","ipad","4",6
"150115-06-sc",2,18,"elmo_apple2","elmo_apple2","elmo_orange2","control_single","target","distractor","R","elmo_orange2","N","1/15/15","15:12",347,"1vs1",NA,"keep","ipad","4",6
"150115-07-sc",1,1,"practice1_cow","practice1_cow","practice1_lion","practice","target","distractor","L","practice1_cow","Y","1/15/15","15:25",2635,NA,NA,"keep","ipad","5",6
"150115-07-sc",1,2,"practice2_monkey","practice2_rabbit","practice2_monkey","practice","distractor","target","R","practice2_monkey","Y","1/15/15","15:25",1039,NA,NA,"keep","ipad","5",6
"150115-07-sc",1,3,"elmo_teddybear","elmo_flower","elmo_teddybear","control_single","distractor","target","R","elmo_teddybear","Y","1/15/15","15:25",1498,"2vs2",NA,"keep","ipad","5",6
"150115-07-sc",1,4,"elmo_apple","elmo_apple","elmo_orange","inference","target","distractor","L","elmo_apple","Y","1/15/15","15:25",1758,"3vs1",NA,"keep","ipad","5",6
"150115-07-sc",1,5,"grover_dog","grover_cat","grover_dog","control_double","distractor","target","R","grover_dog","Y","1/15/15","15:25",3633,"3vs1",NA,"keep","ipad","5",6
"150115-07-sc",1,6,"elmo_banana","elmo_banana","elmo_carrot","control_single","target","distractor","L","elmo_banana","Y","1/15/15","15:25",1476,"1vs1",NA,"keep","ipad","5",6
"150115-07-sc",1,7,"grover_car","grover_car","grover_bicycle","inference","target","distractor","L","grover_car","Y","1/15/15","15:25",2041,"3vs1",NA,"keep","ipad","5",6
"150115-07-sc",1,8,"ernie_orange","ernie_apple","ernie_orange","control_single","distractor","target","R","ernie_orange","Y","1/15/15","15:25",1581,"1vs1",NA,"keep","ipad","5",6
"150115-07-sc",1,9,"bert_cat","bert_cat","bert_dog","control_single","target","distractor","L","bert_cat","Y","1/15/15","15:25",2333,"2vs2",NA,"keep","ipad","5",6
"150115-07-sc",1,10,"bert_ball","bert_ball","bert_truck","control_double","target","distractor","L","bert_ball","Y","1/15/15","15:25",1728,"2vs1",NA,"keep","ipad","5",6
"150115-07-sc",1,11,"bert_flower","bert_flower","bert_teddybear","control_double","target","distractor","L","bert_flower","Y","1/15/15","15:25",1636,"3vs1",NA,"keep","ipad","5",6
"150115-07-sc",1,12,"elmo_truck","elmo_ball","elmo_truck","control_single","distractor","target","R","elmo_truck","Y","1/15/15","15:25",1187,"1vs1",NA,"keep","ipad","5",6
"150115-07-sc",1,13,"bert_bicycle","bert_car","bert_bicycle","control_single","distractor","target","R","bert_bicycle","Y","1/15/15","15:25",1362,"2vs2",NA,"keep","ipad","5",6
"150115-07-sc",1,14,"bert_carrot","bert_banana","bert_carrot","inference","distractor","target","R","bert_carrot","Y","1/15/15","15:25",2346,"2vs1",NA,"keep","ipad","5",6
"150115-07-sc",1,15,"ernie_car","ernie_car","ernie_bicycle","control_single","target","distractor","L","ernie_car","Y","1/15/15","15:25",3192,"1vs1",NA,"keep","ipad","5",6
"150115-07-sc",1,16,"grover_orange","grover_apple","grover_orange","control_double","distractor","target","R","grover_orange","Y","1/15/15","15:25",1502,"2vs1",NA,"keep","ipad","5",6
"150115-07-sc",1,17,"ernie_teddybear","ernie_flower","ernie_teddybear","inference","distractor","target","R","ernie_teddybear","Y","1/15/15","15:25",1532,"2vs1",NA,"keep","ipad","5",6
"150115-07-sc",1,18,"grover_ball","grover_ball","grover_truck","control_single","target","distractor","L","grover_ball","Y","1/15/15","15:25",2272,"2vs2",NA,"keep","ipad","5",6
"150116-01-sc",1,1,"practice1_cow","practice1_cow","practice1_lion","practice","target","distractor","L","practice1_cow","Y","1/16/15","10:11",5923,NA,NA,"keep","ipad","5",6
"150116-01-sc",1,2,"practice2_monkey","practice2_rabbit","practice2_monkey","practice","distractor","target","R","practice2_monkey","Y","1/16/15","10:11",2419,NA,NA,"keep","ipad","5",6
"150116-01-sc",1,3,"elmo_teddybear","elmo_flower","elmo_teddybear","control_single","distractor","target","R","elmo_teddybear","Y","1/16/15","10:11",3083,"2vs2",NA,"keep","ipad","5",6
"150116-01-sc",1,4,"elmo_apple","elmo_apple","elmo_orange","inference","target","distractor","L","elmo_apple","Y","1/16/15","10:11",2397,"3vs1",NA,"keep","ipad","5",6
"150116-01-sc",1,5,"grover_dog","grover_cat","grover_dog","control_double","distractor","target","R","grover_dog","Y","1/16/15","10:11",3813,"3vs1",NA,"keep","ipad","5",6
"150116-01-sc",1,6,"elmo_banana","elmo_banana","elmo_carrot","control_single","target","distractor","L","elmo_banana","Y","1/16/15","10:11",2222,"1vs1",NA,"keep","ipad","5",6
"150116-01-sc",1,7,"grover_car","grover_car","grover_bicycle","inference","target","distractor","R","grover_bicycle","N","1/16/15","10:11",3886,"3vs1",NA,"keep","ipad","5",6
"150116-01-sc",1,8,"ernie_orange","ernie_apple","ernie_orange","control_single","distractor","target","R","ernie_orange","Y","1/16/15","10:11",3030,"1vs1",NA,"keep","ipad","5",6
"150116-01-sc",1,9,"bert_cat","bert_cat","bert_dog","control_single","target","distractor","L","bert_cat","Y","1/16/15","10:11",2067,"2vs2",NA,"keep","ipad","5",6
"150116-01-sc",1,10,"bert_ball","bert_ball","bert_truck","control_double","target","distractor","L","bert_ball","Y","1/16/15","10:11",1640,"2vs1",NA,"keep","ipad","5",6
"150116-01-sc",1,11,"bert_flower","bert_flower","bert_teddybear","control_double","target","distractor","L","bert_flower","Y","1/16/15","10:11",2016,"3vs1",NA,"keep","ipad","5",6
"150116-01-sc",1,12,"elmo_truck","elmo_ball","elmo_truck","control_single","distractor","target","R","elmo_truck","Y","1/16/15","10:11",3186,"1vs1",NA,"keep","ipad","5",6
"150116-01-sc",1,13,"bert_bicycle","bert_car","bert_bicycle","control_single","distractor","target","R","bert_bicycle","Y","1/16/15","10:11",1704,"2vs2",NA,"keep","ipad","5",6
"150116-01-sc",1,14,"bert_carrot","bert_banana","bert_carrot","inference","distractor","target","R","bert_carrot","Y","1/16/15","10:11",1307,"2vs1",NA,"keep","ipad","5",6
"150116-01-sc",1,15,"ernie_car","ernie_car","ernie_bicycle","control_single","target","distractor","L","ernie_car","Y","1/16/15","10:11",1138,"1vs1",NA,"keep","ipad","5",6
"150116-01-sc",1,16,"grover_orange","grover_apple","grover_orange","control_double","distractor","target","R","grover_orange","Y","1/16/15","10:11",1308,"2vs1",NA,"keep","ipad","5",6
"150116-01-sc",1,17,"ernie_teddybear","ernie_flower","ernie_teddybear","inference","distractor","target","L","ernie_flower","N","1/16/15","10:11",4223,"2vs1",NA,"keep","ipad","5",6
"150116-02-sc",2,1,"practice1_lion","practice1_cow","practice1_lion","practice","distractor","target","R","practice1_lion","Y","1/16/15","10:43",8087,NA,NA,"keep","ipad","3",6
"150116-02-sc",2,2,"practice2_rabbit","practice2_rabbit","practice2_monkey","practice","target","distractor","L","practice2_rabbit","Y","1/16/15","10:43",3423,NA,NA,"keep","ipad","3",6
"150116-02-sc",2,3,"grover_orange2","grover_apple2","grover_orange2","control_single","distractor","target","R","grover_orange2","Y","1/16/15","10:43",2393,"2vs2",NA,"keep","ipad","3",6
"150116-02-sc",2,4,"bert_dog2","bert_cat2","bert_dog2","inference","distractor","target","R","bert_dog2","Y","1/16/15","10:43",3504,"2vs1",NA,"keep","ipad","3",6
"150116-02-sc",2,5,"bert_car2","bert_car2","bert_bicycle2","control_double","target","distractor","L","bert_car2","Y","1/16/15","10:43",3024,"3vs1",NA,"keep","ipad","3",6
"150116-02-sc",2,6,"bert_teddybear2","bert_flower2","bert_teddybear2","control_single","distractor","target","R","bert_teddybear2","Y","1/16/15","10:43",2122,"2vs2",NA,"keep","ipad","3",6
"150116-02-sc",2,7,"grover_ball2","grover_ball2","grover_truck2","inference","target","distractor","L","grover_ball2","Y","1/16/15","10:43",3397,"2vs1",NA,"keep","ipad","3",6
"150116-02-sc",2,8,"elmo_cat2","elmo_dog2","elmo_cat2","control_single","distractor","target","R","elmo_cat2","Y","1/16/15","10:43",3957,"2vs2",NA,"keep","ipad","3",6
"150116-02-sc",2,9,"grover_car2","grover_car2","grover_bicycle2","control_single","target","distractor","L","grover_car2","Y","1/16/15","10:43",2487,"2vs2",NA,"keep","ipad","3",6
"150116-02-sc",2,10,"grover_carrot2","grover_banana2","grover_carrot2","control_double","distractor","target","R","grover_carrot2","Y","1/16/15","10:43",2145,"2vs1",NA,"keep","ipad","3",6
"150116-02-sc",2,11,"ernie_apple2","ernie_apple2","ernie_orange2","control_double","target","distractor","L","ernie_apple2","Y","1/16/15","10:43",3468,"3vs1",NA,"keep","ipad","3",6
"150116-02-sc",2,12,"bert_banana2","bert_banana2","bert_carrot2","control_single","target","distractor","L","bert_banana2","Y","1/16/15","10:43",2530,"1vs1",NA,"keep","ipad","3",6
"150116-02-sc",2,13,"bert_truck2","bert_ball2","bert_truck2","control_single","distractor","target","R","bert_truck2","Y","1/16/15","10:43",2116,"1vs1",NA,"keep","ipad","3",6
"150116-02-sc",2,14,"grover_flower2","grover_teddybear2","grover_flower2","inference","distractor","target","R","grover_flower2","Y","1/16/15","10:43",3592,"3vs1",NA,"keep","ipad","3",6
"150116-02-sc",2,15,"ernie_flower2","ernie_flower2","ernie_teddybear2","control_single","target","distractor","L","ernie_flower2","Y","1/16/15","10:43",1811,"1vs1",NA,"keep","ipad","3",6
"150116-02-sc",2,16,"ernie_cat2","ernie_cat2","ernie_dog2","control_double","target","distractor","R","ernie_dog2","N","1/16/15","10:43",1796,"2vs1",NA,"keep","ipad","3",6
"150116-03-sc",1,1,"practice1_cow","practice1_cow","practice1_lion","practice","target","distractor","L","practice1_cow","Y","1/16/15","10:50",4959,NA,NA,"keep","ipad","4",6
"150116-03-sc",1,2,"practice2_monkey","practice2_rabbit","practice2_monkey","practice","distractor","target","R","practice2_monkey","Y","1/16/15","10:50",2413,NA,NA,"keep","ipad","4",6
"150116-03-sc",1,3,"elmo_teddybear","elmo_flower","elmo_teddybear","control_single","distractor","target","R","elmo_teddybear","Y","1/16/15","10:50",2511,"2vs2",NA,"keep","ipad","4",6
"150116-03-sc",1,4,"elmo_apple","elmo_apple","elmo_orange","inference","target","distractor","L","elmo_apple","Y","1/16/15","10:50",4459,"3vs1",NA,"keep","ipad","4",6
"150116-03-sc",1,5,"grover_dog","grover_cat","grover_dog","control_double","distractor","target","R","grover_dog","Y","1/16/15","10:50",2994,"3vs1",NA,"keep","ipad","4",6
"150116-03-sc",1,6,"elmo_banana","elmo_banana","elmo_carrot","control_single","target","distractor","L","elmo_banana","Y","1/16/15","10:50",2783,"1vs1",NA,"keep","ipad","4",6
"150116-03-sc",1,7,"grover_car","grover_car","grover_bicycle","inference","target","distractor","L","grover_car","Y","1/16/15","10:50",1482,"3vs1",NA,"keep","ipad","4",6
"150116-03-sc",1,8,"ernie_orange","ernie_apple","ernie_orange","control_single","distractor","target","R","ernie_orange","Y","1/16/15","10:50",1454,"1vs1",NA,"keep","ipad","4",6
"150116-03-sc",1,9,"bert_cat","bert_cat","bert_dog","control_single","target","distractor","L","bert_cat","Y","1/16/15","10:50",944,"2vs2",NA,"keep","ipad","4",6
"150116-03-sc",1,10,"bert_ball","bert_ball","bert_truck","control_double","target","distractor","L","bert_ball","Y","1/16/15","10:50",1536,"2vs1",NA,"keep","ipad","4",6
"150116-03-sc",1,11,"bert_flower","bert_flower","bert_teddybear","control_double","target","distractor","L","bert_flower","Y","1/16/15","10:50",1459,"3vs1",NA,"keep","ipad","4",6
"150116-03-sc",1,12,"elmo_truck","elmo_ball","elmo_truck","control_single","distractor","target","R","elmo_truck","Y","1/16/15","10:50",1779,"1vs1",NA,"keep","ipad","4",6
"150116-03-sc",1,13,"bert_bicycle","bert_car","bert_bicycle","control_single","distractor","target","R","bert_bicycle","Y","1/16/15","10:50",1956,"2vs2",NA,"keep","ipad","4",6
"150116-03-sc",1,14,"bert_carrot","bert_banana","bert_carrot","inference","distractor","target","R","bert_carrot","Y","1/16/15","10:50",1103,"2vs1",NA,"keep","ipad","4",6
"150116-03-sc",1,15,"ernie_car","ernie_car","ernie_bicycle","control_single","target","distractor","L","ernie_car","Y","1/16/15","10:50",947,"1vs1",NA,"keep","ipad","4",6
"150116-03-sc",1,16,"grover_orange","grover_apple","grover_orange","control_double","distractor","target","R","grover_orange","Y","1/16/15","10:50",1239,"2vs1",NA,"keep","ipad","4",6
"150116-03-sc",1,17,"ernie_teddybear","ernie_flower","ernie_teddybear","inference","distractor","target","R","ernie_teddybear","Y","1/16/15","10:50",1404,"2vs1",NA,"keep","ipad","4",6
"150116-03-sc",1,18,"grover_ball","grover_ball","grover_truck","control_single","target","distractor","L","grover_ball","Y","1/16/15","10:50",1650,"2vs2",NA,"keep","ipad","4",6
"150116-04-sc",2,1,"practice1_lion","practice1_cow","practice1_lion","practice","distractor","target","R","practice1_lion","Y","1/16/15","10:56",3198,NA,NA,"keep","ipad","3",6
"150116-04-sc",2,2,"practice2_rabbit","practice2_rabbit","practice2_monkey","practice","target","distractor","L","practice2_rabbit","Y","1/16/15","10:56",3405,NA,NA,"keep","ipad","3",6
"150116-04-sc",2,3,"grover_orange2","grover_apple2","grover_orange2","control_single","distractor","target","L","grover_apple2","N","1/16/15","10:56",3211,"2vs2",NA,"keep","ipad","3",6
"150116-04-sc",2,4,"bert_dog2","bert_cat2","bert_dog2","inference","distractor","target","L","bert_cat2","N","1/16/15","10:56",7063,"2vs1",NA,"keep","ipad","3",6
"150116-04-sc",2,5,"bert_car2","bert_car2","bert_bicycle2","control_double","target","distractor","L","bert_car2","Y","1/16/15","10:56",4420,"3vs1",NA,"keep","ipad","3",6
"150116-04-sc",2,6,"bert_teddybear2","bert_flower2","bert_teddybear2","control_single","distractor","target","R","bert_teddybear2","Y","1/16/15","10:56",4031,"2vs2",NA,"keep","ipad","3",6
"150116-04-sc",2,7,"grover_ball2","grover_ball2","grover_truck2","inference","target","distractor","R","grover_truck2","N","1/16/15","10:56",4155,"2vs1",NA,"keep","ipad","3",6
"150116-04-sc",2,8,"elmo_cat2","elmo_dog2","elmo_cat2","control_single","distractor","target","R","elmo_cat2","Y","1/16/15","10:56",13311,"2vs2",NA,"keep","ipad","3",6
"150116-04-sc",2,9,"grover_car2","grover_car2","grover_bicycle2","control_single","target","distractor","L","grover_car2","Y","1/16/15","10:56",5973,"2vs2",NA,"keep","ipad","3",6
"150116-04-sc",2,10,"grover_carrot2","grover_banana2","grover_carrot2","control_double","distractor","target","R","grover_carrot2","Y","1/16/15","10:56",3685,"2vs1",NA,"keep","ipad","3",6
"150116-04-sc",2,11,"ernie_apple2","ernie_apple2","ernie_orange2","control_double","target","distractor","L","ernie_apple2","Y","1/16/15","10:56",6330,"3vs1",NA,"keep","ipad","3",6
"150116-04-sc",2,12,"bert_banana2","bert_banana2","bert_carrot2","control_single","target","distractor","L","bert_banana2","Y","1/16/15","10:56",3281,"1vs1",NA,"keep","ipad","3",6
"150116-04-sc",2,13,"bert_truck2","bert_ball2","bert_truck2","control_single","distractor","target","R","bert_truck2","Y","1/16/15","10:56",4234,"1vs1",NA,"keep","ipad","3",6
"150116-04-sc",2,14,"grover_flower2","grover_teddybear2","grover_flower2","inference","distractor","target","L","grover_teddybear2","N","1/16/15","10:56",4810,"3vs1",NA,"keep","ipad","3",6
"150116-04-sc",2,15,"ernie_flower2","ernie_flower2","ernie_teddybear2","control_single","target","distractor","L","ernie_flower2","Y","1/16/15","10:56",2340,"1vs1",NA,"keep","ipad","3",6
"150116-04-sc",2,16,"ernie_cat2","ernie_cat2","ernie_dog2","control_double","target","distractor","L","ernie_cat2","Y","1/16/15","10:56",5483,"2vs1",NA,"keep","ipad","3",6
"150116-04-sc",2,17,"ernie_bicycle2","ernie_car2","ernie_bicycle2","inference","distractor","target","R","ernie_bicycle2","Y","1/16/15","10:56",2340,"3vs1",NA,"keep","ipad","3",6
"150116-04-sc",2,18,"elmo_apple2","elmo_apple2","elmo_orange2","control_single","target","distractor","L","elmo_apple2","Y","1/16/15","10:56",4416,"1vs1",NA,"keep","ipad","3",6
"150116-05-sc",1,1,"practice1_cow","practice1_cow","practice1_lion","practice","target","distractor","L","practice1_cow","Y","1/16/15","11:06",1146,NA,NA,"keep","ipad","6",6
"150116-05-sc",1,2,"practice2_monkey","practice2_rabbit","practice2_monkey","practice","distractor","target","R","practice2_monkey","Y","1/16/15","11:06",1246,NA,NA,"keep","ipad","6",6
"150116-05-sc",1,3,"elmo_teddybear","elmo_flower","elmo_teddybear","control_single","distractor","target","R","elmo_teddybear","Y","1/16/15","11:06",1369,"2vs2",NA,"keep","ipad","6",6
"150116-05-sc",1,4,"elmo_apple","elmo_apple","elmo_orange","inference","target","distractor","L","elmo_apple","Y","1/16/15","11:06",7909,"3vs1",NA,"keep","ipad","6",6
"150116-05-sc",1,5,"grover_dog","grover_cat","grover_dog","control_double","distractor","target","R","grover_dog","Y","1/16/15","11:06",2269,"3vs1",NA,"keep","ipad","6",6
"150116-05-sc",1,6,"elmo_banana","elmo_banana","elmo_carrot","control_single","target","distractor","L","elmo_banana","Y","1/16/15","11:06",1482,"1vs1",NA,"keep","ipad","6",6
"150116-05-sc",1,7,"grover_car","grover_car","grover_bicycle","inference","target","distractor","R","grover_bicycle","N","1/16/15","11:06",4974,"3vs1",NA,"keep","ipad","6",6
"150116-05-sc",1,8,"ernie_orange","ernie_apple","ernie_orange","control_single","distractor","target","R","ernie_orange","Y","1/16/15","11:06",1447,"1vs1",NA,"keep","ipad","6",6
