subid,age_group,trial_type,item_num,correct,rt141204-01-sc,3,practice,NA,1,7545141204-01-sc,3,practice,NA,1,1610141204-01-sc,3,control_single,2vs2,1,1997141204-01-sc,3,inference,3vs1,1,1897141204-01-sc,3,control_double,3vs1,1,3739141204-01-sc,3,control_single,1vs1,1,1517141204-01-sc,3,control_single,1vs1,1,3315141204-01-sc,3,control_single,2vs2,1,2443141204-01-sc,3,control_double,2vs1,1,2169141204-01-sc,3,control_double,3vs1,1,3193141204-01-sc,3,control_single,1vs1,1,2063141204-01-sc,3,control_single,2vs2,1,2650141204-01-sc,3,inference,2vs1,1,4229141204-01-sc,3,control_single,1vs1,1,1967141204-01-sc,3,control_double,2vs1,1,2199141204-02-sc,3,practice,NA,0,8396141204-02-sc,3,control_single,2vs2,1,2041141204-02-sc,3,inference,2vs1,0,1639141204-02-sc,3,control_double,3vs1,1,1656141204-02-sc,3,control_single,2vs2,0,2177141204-02-sc,3,inference,2vs1,1,2541141204-02-sc,3,control_single,2vs2,1,1655141204-02-sc,3,control_single,2vs2,1,1671141204-02-sc,3,control_double,2vs1,1,2272141204-02-sc,3,control_double,3vs1,1,1728141204-02-sc,3,control_single,1vs1,1,1727141204-02-sc,3,control_single,1vs1,1,2293141204-02-sc,3,inference,3vs1,0,1929141204-02-sc,3,control_single,1vs1,1,2015141204-02-sc,3,control_double,2vs1,1,1839141204-03-sc,3,practice,NA,1,6584141204-03-sc,3,practice,NA,1,2177141204-03-sc,3,control_single,2vs2,1,2253141204-03-sc,3,inference,3vs1,1,2257141204-03-sc,3,control_double,3vs1,1,3995141204-03-sc,3,control_single,1vs1,1,1788141204-03-sc,3,control_single,1vs1,1,2487141204-03-sc,3,control_single,2vs2,1,2926141204-03-sc,3,control_double,2vs1,1,2542141204-03-sc,3,control_double,3vs1,1,1806141204-03-sc,3,control_single,1vs1,1,1901141204-03-sc,3,control_single,2vs2,1,1861141204-03-sc,3,inference,2vs1,1,2214141204-03-sc,3,control_single,1vs1,1,1392141204-03-sc,3,control_double,2vs1,1,1355141204-04-sc,5,practice,NA,1,2964141204-04-sc,5,practice,NA,1,1684141204-04-sc,5,control_single,2vs2,1,1550141204-04-sc,5,inference,3vs1,1,1823141204-04-sc,5,control_double,3vs1,1,3124141204-04-sc,5,control_single,1vs1,1,1118141204-04-sc,5,inference,3vs1,1,5615141204-04-sc,5,control_single,1vs1,1,1688141204-04-sc,5,control_single,2vs2,1,1713141204-04-sc,5,control_double,2vs1,1,1388141204-04-sc,5,control_double,3vs1,1,1225141204-04-sc,5,control_single,1vs1,1,1073141204-04-sc,5,control_single,2vs2,1,1486141204-04-sc,5,inference,2vs1,1,743141204-04-sc,5,control_single,1vs1,1,4623141204-04-sc,5,control_double,2vs1,1,911141204-05-sc,3,practice,NA,1,1755141204-05-sc,3,practice,NA,1,1489141204-05-sc,3,control_single,2vs2,1,2600141204-05-sc,3,inference,2vs1,1,4792141204-05-sc,3,control_double,3vs1,1,1622141204-05-sc,3,control_single,2vs2,1,1556141204-05-sc,3,inference,2vs1,1,1954141204-05-sc,3,control_single,2vs2,1,2265141204-05-sc,3,control_single,2vs2,1,1046141204-05-sc,3,control_double,2vs1,1,1931141204-05-sc,3,control_double,3vs1,1,2060141204-05-sc,3,control_single,1vs1,1,2062141204-05-sc,3,control_single,1vs1,1,1795141204-05-sc,3,inference,3vs1,1,2021141204-05-sc,3,control_single,1vs1,1,2090141204-05-sc,3,control_double,2vs1,1,1793141204-06-sc,3,practice,NA,1,1712141204-06-sc,3,practice,NA,1,2780141204-06-sc,3,control_single,2vs2,1,2140141204-06-sc,3,inference,2vs1,1,2575141204-06-sc,3,control_double,3vs1,1,5626141204-06-sc,3,control_single,2vs2,1,1886141204-06-sc,3,inference,2vs1,1,2644141204-06-sc,3,control_single,2vs2,1,2080141204-06-sc,3,control_single,2vs2,1,3306141204-06-sc,3,control_double,2vs1,1,2096141204-06-sc,3,control_double,3vs1,1,4955141204-06-sc,3,control_single,1vs1,1,1585141204-06-sc,3,control_single,1vs1,1,2372141204-06-sc,3,inference,3vs1,1,2193141204-06-sc,3,control_single,1vs1,1,2316141204-06-sc,3,control_double,2vs1,1,3369141209-01-sc,3,practice,NA,1,3394141209-01-sc,3,practice,NA,1,2000141209-01-sc,3,control_single,2vs2,1,1560141209-01-sc,3,inference,3vs1,1,1801141209-01-sc,3,control_double,3vs1,1,2989141209-01-sc,3,control_single,1vs1,1,1755141209-01-sc,3,inference,3vs1,1,5152141209-01-sc,3,control_single,1vs1,1,2071141209-01-sc,3,control_single,2vs2,1,1876141209-01-sc,3,control_double,2vs1,1,3940141209-01-sc,3,control_double,3vs1,1,1994141209-01-sc,3,control_single,1vs1,1,1405141209-01-sc,3,control_single,2vs2,1,1432141209-01-sc,3,inference,2vs1,1,1531141209-01-sc,3,control_single,1vs1,1,2079141209-01-sc,3,control_double,2vs1,1,1904141209-01-sc,3,inference,2vs1,1,1747141209-01-sc,3,control_single,2vs2,1,2121141209-02-sc,4,practice,NA,1,8727141209-02-sc,4,practice,NA,1,1400141209-02-sc,4,control_single,2vs2,1,2085141209-02-sc,4,inference,2vs1,1,2613141209-02-sc,4,control_double,3vs1,1,1639141209-02-sc,4,control_single,2vs2,1,1830141209-02-sc,4,inference,2vs1,1,2694141209-02-sc,4,control_single,2vs2,1,2660141209-02-sc,4,control_single,2vs2,1,1786141209-02-sc,4,control_double,2vs1,1,1584141209-02-sc,4,control_double,3vs1,1,2287141209-02-sc,4,control_single,1vs1,1,1633141209-02-sc,4,control_single,1vs1,0,1627141209-02-sc,4,inference,3vs1,1,1543141209-02-sc,4,control_single,1vs1,1,1863141209-02-sc,4,control_double,2vs1,1,1941141209-02-sc,4,inference,3vs1,1,1469141209-02-sc,4,control_single,1vs1,1,1170141209-03-sc,3,practice,NA,0,2112141209-03-sc,3,practice,NA,1,1668141209-03-sc,3,control_single,2vs2,1,2272141209-03-sc,3,inference,2vs1,1,2032141209-03-sc,3,control_double,3vs1,1,2212141209-03-sc,3,control_single,2vs2,1,1580141209-03-sc,3,inference,2vs1,1,2231141209-03-sc,3,control_single,2vs2,1,2306141209-03-sc,3,control_single,2vs2,1,1812141209-03-sc,3,control_double,2vs1,1,1323141209-03-sc,3,control_double,3vs1,1,1868141209-03-sc,3,control_single,1vs1,1,1383141209-03-sc,3,control_single,1vs1,1,2294141209-03-sc,3,inference,3vs1,1,3974141209-03-sc,3,control_single,1vs1,1,1330141209-03-sc,3,control_double,2vs1,1,2560141209-03-sc,3,inference,3vs1,1,1929141209-03-sc,3,control_single,1vs1,1,1400141209-04-sc,5,practice,NA,1,2382141209-04-sc,5,practice,NA,1,1536141209-04-sc,5,control_single,2vs2,1,2325141209-04-sc,5,inference,3vs1,1,1825141209-04-sc,5,control_double,3vs1,1,3153141209-04-sc,5,control_single,1vs1,1,1545141209-04-sc,5,inference,3vs1,1,1200141209-04-sc,5,control_single,1vs1,1,1522141209-04-sc,5,control_single,2vs2,1,1776141209-04-sc,5,control_double,2vs1,1,1602141209-04-sc,5,control_double,3vs1,1,1137141209-04-sc,5,control_single,1vs1,1,1416141209-04-sc,5,control_single,2vs2,1,1521141209-04-sc,5,inference,2vs1,1,1391141209-04-sc,5,control_single,1vs1,1,1776141209-04-sc,5,control_double,2vs1,1,1323141209-05-sc,4,practice,NA,1,3078141209-05-sc,4,practice,NA,1,1640141209-05-sc,4,control_single,2vs2,1,1456141209-05-sc,4,inference,2vs1,1,2145141209-05-sc,4,control_double,3vs1,1,1577141209-05-sc,4,control_single,2vs2,1,1519141209-05-sc,4,inference,2vs1,1,1782141209-05-sc,4,control_single,2vs2,1,1350141209-05-sc,4,control_single,2vs2,1,1509141209-05-sc,4,control_double,2vs1,1,1898141209-05-sc,4,control_double,3vs1,1,2229141209-05-sc,4,control_single,1vs1,1,1540141209-05-sc,4,control_single,1vs1,1,1252141209-05-sc,4,inference,3vs1,1,1563141209-05-sc,4,control_single,1vs1,1,1681141209-05-sc,4,control_double,2vs1,1,1500141209-05-sc,4,inference,3vs1,1,1613141209-05-sc,4,control_single,1vs1,1,1835141209-06-sc,3,practice,NA,1,2414141209-06-sc,3,practice,NA,1,2215141209-06-sc,3,control_single,2vs2,1,2286141209-06-sc,3,inference,2vs1,1,1705141209-06-sc,3,control_double,3vs1,1,2938141209-06-sc,3,control_single,2vs2,1,1732141209-06-sc,3,inference,2vs1,1,3608141209-06-sc,3,control_single,2vs2,1,2066141209-06-sc,3,control_single,2vs2,1,2058141209-06-sc,3,control_double,2vs1,1,1434141209-06-sc,3,control_double,3vs1,1,2225141209-06-sc,3,control_single,1vs1,1,1627141209-06-sc,3,control_single,1vs1,1,1773141209-06-sc,3,inference,3vs1,1,1702141209-06-sc,3,control_single,1vs1,1,4194141209-06-sc,3,control_double,2vs1,1,1776141209-06-sc,3,inference,3vs1,1,3611141209-06-sc,3,control_single,1vs1,1,2542141209-07-sc,NA,practice,NA,1,7438141209-07-sc,NA,practice,NA,1,12108141209-07-sc,NA,control_single,2vs2,1,4711141209-07-sc,NA,inference,3vs1,0,4836141209-07-sc,NA,control_double,3vs1,0,3516141209-07-sc,NA,control_single,1vs1,0,6480141209-07-sc,NA,inference,3vs1,1,3892141209-07-sc,NA,control_single,1vs1,1,1931141209-07-sc,NA,control_single,2vs2,1,3954141209-07-sc,NA,control_double,2vs1,1,3624141209-07-sc,NA,control_double,3vs1,1,2141141209-07-sc,NA,control_single,1vs1,1,1638141209-07-sc,NA,control_single,2vs2,1,1551141209-07-sc,NA,inference,2vs1,1,3701141209-07-sc,NA,control_single,1vs1,1,1285141209-07-sc,NA,control_double,2vs1,1,6407141209-07-sc,NA,inference,2vs1,1,1278141209-07-sc,NA,control_single,2vs2,1,1510150108-01-sc,5,practice,NA,1,3292150108-01-sc,5,practice,NA,1,1613150108-01-sc,5,control_single,2vs2,1,2051150108-01-sc,5,inference,3vs1,1,2174150108-01-sc,5,control_double,3vs1,1,3865150108-01-sc,5,control_single,1vs1,1,1380150108-01-sc,5,inference,3vs1,1,2752150108-01-sc,5,control_single,1vs1,1,1706150108-01-sc,5,control_single,2vs2,1,2095150108-01-sc,5,control_double,2vs1,1,2091150108-01-sc,5,control_double,3vs1,1,1634150108-01-sc,5,control_single,1vs1,0,1063150108-01-sc,5,control_single,2vs2,1,1164150108-01-sc,5,inference,2vs1,1,2764150108-01-sc,5,control_single,1vs1,1,1995150108-01-sc,5,control_double,2vs1,1,1270150108-01-sc,5,inference,2vs1,0,1808150108-01-sc,5,control_single,2vs2,1,4017150109-01-sc,NA,practice,NA,0,5764150109-01-sc,NA,practice,NA,1,1979150109-01-sc,NA,control_single,2vs2,1,2007150109-01-sc,NA,inference,3vs1,0,1936150109-01-sc,NA,control_double,3vs1,1,3185150109-01-sc,NA,control_single,1vs1,0,5517150109-01-sc,NA,inference,3vs1,0,3159150109-01-sc,NA,control_single,1vs1,1,4495150109-01-sc,NA,control_single,2vs2,0,3247150109-01-sc,NA,control_double,2vs1,1,4436150109-01-sc,NA,control_double,3vs1,0,2816150109-01-sc,NA,control_single,1vs1,1,2790150109-01-sc,NA,control_single,2vs2,1,2808150109-01-sc,NA,inference,2vs1,1,3718150109-01-sc,NA,control_single,1vs1,0,1734150109-01-sc,NA,control_double,2vs1,1,4477150109-01-sc,NA,inference,2vs1,1,2528150109-01-sc,NA,control_single,2vs2,1,12611150109-02-sc,NA,practice,NA,1,6951150109-02-sc,NA,control_single,2vs2,1,8829150109-02-sc,NA,inference,2vs1,1,3775150109-02-sc,NA,control_double,3vs1,1,8715150109-02-sc,NA,control_single,2vs2,1,5502150109-02-sc,NA,inference,2vs1,0,3308150109-02-sc,NA,control_single,2vs2,1,2783150109-02-sc,NA,control_single,2vs2,1,4994150109-02-sc,NA,control_double,2vs1,1,3039150109-02-sc,NA,control_double,3vs1,0,4865150109-02-sc,NA,control_single,1vs1,1,10287150109-02-sc,NA,control_single,1vs1,1,3401150109-02-sc,NA,inference,3vs1,0,3646150109-02-sc,NA,control_single,1vs1,1,2732150109-02-sc,NA,control_double,2vs1,1,3498150109-02-sc,NA,inference,3vs1,0,3211150109-02-sc,NA,control_single,1vs1,1,2922150109-03-sc,NA,practice,NA,1,8562150109-03-sc,NA,practice,NA,1,1860150109-03-sc,NA,control_single,2vs2,1,2233150109-03-sc,NA,inference,3vs1,0,2670150109-03-sc,NA,control_double,3vs1,0,3478150109-03-sc,NA,inference,3vs1,0,513150109-03-sc,NA,control_single,1vs1,1,502150109-03-sc,NA,control_single,2vs2,1,7177150109-03-sc,NA,control_double,2vs1,1,3899150109-03-sc,NA,control_double,3vs1,1,3167150109-03-sc,NA,control_single,1vs1,0,1319150109-03-sc,NA,control_single,2vs2,0,486150109-03-sc,NA,control_single,1vs1,1,3859150109-03-sc,NA,control_double,2vs1,0,5679150109-03-sc,NA,inference,2vs1,0,2713150109-03-sc,NA,control_single,2vs2,1,1937150109-04,NA,practice,NA,1,9651150109-04,NA,practice,NA,1,1604150109-04,NA,control_single,2vs2,0,4264150109-04,NA,inference,3vs1,0,2419150109-04,NA,control_double,3vs1,1,3400150109-04,NA,control_single,1vs1,1,3941150109-04,NA,inference,3vs1,1,2200150109-04,NA,control_single,1vs1,1,5230150109-04,NA,control_single,2vs2,1,4307150109-04,NA,control_double,2vs1,1,2282150109-04,NA,control_double,3vs1,1,2571150109-04,NA,control_single,1vs1,0,4045150109-04,NA,control_single,2vs2,1,2668150109-04,NA,inference,2vs1,0,2619150109-04,NA,control_single,1vs1,1,2241150109-04,NA,control_double,2vs1,1,4718150109-04,NA,inference,2vs1,0,2206150109-04,NA,control_single,2vs2,1,2947150109-05,NA,practice,NA,1,12202150109-05,NA,practice,NA,0,5007150109-05,NA,control_single,2vs2,1,708150109-05,NA,inference,2vs1,1,9514150109-06,NA,practice,NA,1,4294150109-06,NA,practice,NA,1,7134150109-06,NA,inference,3vs1,0,12571150109-06,NA,control_double,3vs1,1,11540150109-06,NA,control_single,1vs1,1,374150109-06,NA,inference,3vs1,1,3108150109-06,NA,control_single,1vs1,0,1061150109-06,NA,control_single,2vs2,0,7530150109-06,NA,control_double,2vs1,1,467150109-06,NA,control_double,3vs1,0,10744150109-06,NA,control_single,2vs2,1,387150109-06,NA,control_single,1vs1,0,506150109-06,NA,inference,2vs1,0,659150109-07,NA,practice,NA,1,2779150109-07,NA,practice,NA,0,7168150109-07,NA,control_single,2vs2,1,2167150109-07,NA,inference,2vs1,1,2868150109-07,NA,control_double,3vs1,0,7664150109-07,NA,control_single,2vs2,1,5285150109-07,NA,inference,2vs1,0,4333150109-07,NA,control_single,2vs2,1,2722150109-07,NA,control_single,2vs2,0,4892150109-07,NA,control_double,2vs1,1,3064150109-07,NA,control_double,3vs1,0,2943150109-07,NA,control_single,1vs1,0,2675150109-07,NA,control_single,1vs1,1,2724150109-07,NA,inference,3vs1,0,3131150109-07,NA,control_single,1vs1,1,2094150109-07,NA,control_double,2vs1,1,390150109-07,NA,inference,3vs1,1,3344150109-07,NA,control_single,1vs1,1,3497150109-08,NA,practice,NA,1,2438150109-08,NA,practice,NA,1,1618150109-08,NA,control_single,2vs2,1,2928150109-08,NA,inference,2vs1,1,2619150109-08,NA,control_double,3vs1,1,1278150109-08,NA,control_single,2vs2,1,1074150109-08,NA,inference,2vs1,1,1850150109-08,NA,control_single,2vs2,1,1281150109-08,NA,control_single,2vs2,1,1353150109-08,NA,control_double,2vs1,1,1591150109-08,NA,control_double,3vs1,1,1895150109-08,NA,control_single,1vs1,1,1425150109-08,NA,control_single,1vs1,1,1158150109-08,NA,inference,3vs1,1,1644150109-08,NA,control_single,1vs1,1,1594150109-08,NA,control_double,2vs1,1,1502150109-08,NA,inference,3vs1,1,1928150109-08,NA,control_single,1vs1,1,1573150115-01-sc,4,practice,NA,1,1635150115-01-sc,4,practice,NA,1,1446150115-01-sc,4,control_single,2vs2,1,1624150115-01-sc,4,inference,2vs1,1,2199150115-01-sc,4,control_double,3vs1,1,1975150115-01-sc,4,control_single,2vs2,1,1573150115-01-sc,4,inference,2vs1,1,1855150115-01-sc,4,control_single,2vs2,1,1187150115-01-sc,4,control_single,2vs2,1,1900150115-01-sc,4,control_double,2vs1,1,1545150115-01-sc,4,control_double,3vs1,1,2266150115-01-sc,4,control_single,1vs1,1,1481150115-01-sc,4,control_single,1vs1,1,2065150115-01-sc,4,inference,3vs1,1,1343150115-01-sc,4,control_single,1vs1,1,1319150115-01-sc,4,control_double,2vs1,1,1107150115-01-sc,4,inference,3vs1,1,1513150115-01-sc,4,control_single,1vs1,1,2144150115-02-sc,3,practice,NA,1,6726150115-02-sc,3,practice,NA,1,8991150115-02-sc,3,control_single,2vs2,1,3393150115-02-sc,3,inference,3vs1,1,11699150115-02-sc,3,control_double,3vs1,1,3135150115-02-sc,3,control_single,1vs1,1,2178150115-02-sc,3,inference,3vs1,0,8961150115-02-sc,3,control_single,1vs1,1,1771150115-02-sc,3,control_single,2vs2,1,2663150115-02-sc,3,control_double,2vs1,1,2975150115-02-sc,3,control_double,3vs1,1,2144150115-02-sc,3,control_single,1vs1,1,3067150115-02-sc,3,control_single,2vs2,1,2127150115-02-sc,3,inference,2vs1,1,4926150115-02-sc,3,control_single,1vs1,1,9185150115-02-sc,3,control_double,2vs1,1,2162150115-02-sc,3,inference,2vs1,1,1326150115-02-sc,3,control_single,2vs2,1,5135150115-03-sc,5,practice,NA,1,5666150115-03-sc,5,practice,NA,1,3745150115-03-sc,5,control_single,2vs2,1,2430150115-03-sc,5,inference,2vs1,1,3677150115-03-sc,5,control_double,3vs1,1,1489150115-03-sc,5,control_single,2vs2,1,1434150115-03-sc,5,inference,2vs1,1,3401150115-03-sc,5,control_single,2vs2,1,1940150115-03-sc,5,control_single,2vs2,1,1312150115-03-sc,5,control_double,2vs1,1,2084150115-03-sc,5,control_double,3vs1,1,2352150115-03-sc,5,control_single,1vs1,1,1611150115-03-sc,5,control_single,1vs1,1,1891150115-03-sc,5,inference,3vs1,1,2447150115-03-sc,5,control_single,1vs1,1,1883150115-03-sc,5,control_double,2vs1,1,1703150115-03-sc,5,inference,3vs1,1,2887150115-03-sc,5,control_single,1vs1,1,1479150115-04-sc,5,practice,NA,1,1902150115-04-sc,5,practice,NA,1,1427150115-04-sc,5,control_single,2vs2,1,1783150115-04-sc,5,inference,2vs1,1,2061150115-04-sc,5,control_double,3vs1,1,1981150115-04-sc,5,control_single,2vs2,1,1742150115-04-sc,5,inference,2vs1,1,4076150115-04-sc,5,control_single,2vs2,1,2198150115-04-sc,5,control_single,2vs2,1,4305150115-04-sc,5,control_double,2vs1,1,3492150115-04-sc,5,control_double,3vs1,1,2210150115-04-sc,5,control_single,1vs1,1,2316150115-04-sc,5,control_single,1vs1,1,3535150115-04-sc,5,inference,3vs1,1,3281150115-04-sc,5,control_single,1vs1,1,1705150115-04-sc,5,control_double,2vs1,1,2287150115-04-sc,5,inference,3vs1,1,1879150115-04-sc,5,control_single,1vs1,1,1391150115-05-sc,5,practice,NA,1,1871150115-05-sc,5,practice,NA,1,1765150115-05-sc,5,control_single,2vs2,1,1937150115-05-sc,5,inference,3vs1,1,1768150115-05-sc,5,control_double,3vs1,1,3864150115-05-sc,5,control_single,1vs1,0,2115150115-05-sc,5,inference,3vs1,1,1718150115-05-sc,5,control_single,1vs1,1,1777150115-05-sc,5,control_single,2vs2,1,1539150115-05-sc,5,control_double,2vs1,1,1316150115-05-sc,5,control_double,3vs1,1,1547150115-05-sc,5,control_single,1vs1,1,1462150115-05-sc,5,control_single,2vs2,1,3259150115-05-sc,5,control_single,1vs1,1,1776150115-05-sc,5,control_double,2vs1,0,3550150115-05-sc,5,inference,2vs1,1,2255150115-05-sc,5,control_single,2vs2,1,1734150115-06-sc,4,practice,NA,0,5138150115-06-sc,4,practice,NA,1,1397150115-06-sc,4,control_single,2vs2,0,1576150115-06-sc,4,inference,2vs1,0,526150115-06-sc,4,control_double,3vs1,1,1724150115-06-sc,4,control_single,2vs2,0,1304150115-06-sc,4,inference,2vs1,0,2679150115-06-sc,4,control_single,2vs2,0,6113150115-06-sc,4,control_single,2vs2,1,2192150115-06-sc,4,control_double,2vs1,0,2647150115-06-sc,4,control_double,3vs1,0,1717150115-06-sc,4,control_single,1vs1,1,5290150115-06-sc,4,control_single,1vs1,1,3340150115-06-sc,4,inference,3vs1,1,3248150115-06-sc,4,control_single,1vs1,1,2460150115-06-sc,4,control_double,2vs1,0,1344150115-06-sc,4,inference,3vs1,1,7076150115-06-sc,4,control_single,1vs1,0,347150115-07-sc,5,practice,NA,1,2635150115-07-sc,5,practice,NA,1,1039150115-07-sc,5,control_single,2vs2,1,1498150115-07-sc,5,inference,3vs1,1,1758150115-07-sc,5,control_double,3vs1,1,3633150115-07-sc,5,control_single,1vs1,1,1476150115-07-sc,5,inference,3vs1,1,2041150115-07-sc,5,control_single,1vs1,1,1581150115-07-sc,5,control_single,2vs2,1,2333150115-07-sc,5,control_double,2vs1,1,1728150115-07-sc,5,control_double,3vs1,1,1636150115-07-sc,5,control_single,1vs1,1,1187150115-07-sc,5,control_single,2vs2,1,1362150115-07-sc,5,inference,2vs1,1,2346150115-07-sc,5,control_single,1vs1,1,3192150115-07-sc,5,control_double,2vs1,1,1502150115-07-sc,5,inference,2vs1,1,1532150115-07-sc,5,control_single,2vs2,1,2272150116-01-sc,5,practice,NA,1,5923150116-01-sc,5,practice,NA,1,2419150116-01-sc,5,control_single,2vs2,1,3083150116-01-sc,5,inference,3vs1,1,2397150116-01-sc,5,control_double,3vs1,1,3813150116-01-sc,5,control_single,1vs1,1,2222150116-01-sc,5,inference,3vs1,0,3886150116-01-sc,5,control_single,1vs1,1,3030150116-01-sc,5,control_single,2vs2,1,2067150116-01-sc,5,control_double,2vs1,1,1640150116-01-sc,5,control_double,3vs1,1,2016150116-01-sc,5,control_single,1vs1,1,3186150116-01-sc,5,control_single,2vs2,1,1704150116-01-sc,5,inference,2vs1,1,1307150116-01-sc,5,control_single,1vs1,1,1138150116-01-sc,5,control_double,2vs1,1,1308150116-01-sc,5,inference,2vs1,0,4223150116-02-sc,3,practice,NA,1,8087150116-02-sc,3,practice,NA,1,3423150116-02-sc,3,control_single,2vs2,1,2393150116-02-sc,3,inference,2vs1,1,3504150116-02-sc,3,control_double,3vs1,1,3024150116-02-sc,3,control_single,2vs2,1,2122150116-02-sc,3,inference,2vs1,1,3397150116-02-sc,3,control_single,2vs2,1,3957150116-02-sc,3,control_single,2vs2,1,2487150116-02-sc,3,control_double,2vs1,1,2145150116-02-sc,3,control_double,3vs1,1,3468150116-02-sc,3,control_single,1vs1,1,2530150116-02-sc,3,control_single,1vs1,1,2116150116-02-sc,3,inference,3vs1,1,3592150116-02-sc,3,control_single,1vs1,1,1811150116-02-sc,3,control_double,2vs1,0,1796150116-03-sc,4,practice,NA,1,4959150116-03-sc,4,practice,NA,1,2413150116-03-sc,4,control_single,2vs2,1,2511150116-03-sc,4,inference,3vs1,1,4459150116-03-sc,4,control_double,3vs1,1,2994150116-03-sc,4,control_single,1vs1,1,2783150116-03-sc,4,inference,3vs1,1,1482150116-03-sc,4,control_single,1vs1,1,1454150116-03-sc,4,control_single,2vs2,1,944150116-03-sc,4,control_double,2vs1,1,1536150116-03-sc,4,control_double,3vs1,1,1459150116-03-sc,4,control_single,1vs1,1,1779150116-03-sc,4,control_single,2vs2,1,1956150116-03-sc,4,inference,2vs1,1,1103150116-03-sc,4,control_single,1vs1,1,947150116-03-sc,4,control_double,2vs1,1,1239150116-03-sc,4,inference,2vs1,1,1404150116-03-sc,4,control_single,2vs2,1,1650150116-04-sc,3,practice,NA,1,3198150116-04-sc,3,practice,NA,1,3405150116-04-sc,3,control_single,2vs2,0,3211150116-04-sc,3,inference,2vs1,0,7063150116-04-sc,3,control_double,3vs1,1,4420150116-04-sc,3,control_single,2vs2,1,4031150116-04-sc,3,inference,2vs1,0,4155150116-04-sc,3,control_single,2vs2,1,5973150116-04-sc,3,control_double,2vs1,1,3685150116-04-sc,3,control_double,3vs1,1,6330150116-04-sc,3,control_single,1vs1,1,3281150116-04-sc,3,control_single,1vs1,1,4234150116-04-sc,3,inference,3vs1,0,4810150116-04-sc,3,control_single,1vs1,1,2340150116-04-sc,3,control_double,2vs1,1,5483150116-04-sc,3,inference,3vs1,1,2340150116-04-sc,3,control_single,1vs1,1,4416150116-05-sc,6,practice,NA,1,1146150116-05-sc,6,practice,NA,1,1246150116-05-sc,6,control_single,2vs2,1,1369150116-05-sc,6,inference,3vs1,1,7909150116-05-sc,6,control_double,3vs1,1,2269150116-05-sc,6,control_single,1vs1,1,1482150116-05-sc,6,inference,3vs1,0,4974150116-05-sc,6,control_single,1vs1,1,1447150116-05-sc,6,control_single,2vs2,1,2487150116-05-sc,6,control_double,2vs1,1,1382150116-05-sc,6,control_double,3vs1,1,1515150116-05-sc,6,control_single,1vs1,1,1162150116-05-sc,6,control_single,2vs2,1,1050150116-05-sc,6,inference,2vs1,0,2347150116-05-sc,6,control_single,1vs1,1,2035150116-05-sc,6,control_double,2vs1,1,1167150116-05-sc,6,inference,2vs1,1,4409150116-05-sc,6,control_single,2vs2,1,1648150116-07-sc,3,practice,NA,1,6448150116-07-sc,3,practice,NA,1,4662150116-07-sc,3,control_single,2vs2,1,3283150116-07-sc,3,inference,3vs1,1,2026150116-07-sc,3,control_double,3vs1,1,2995150116-07-sc,3,control_single,1vs1,1,2601150116-07-sc,3,control_single,1vs1,1,2120150116-07-sc,3,control_single,2vs2,1,2003150116-07-sc,3,control_double,2vs1,1,5266150116-07-sc,3,control_double,3vs1,1,2718150116-07-sc,3,control_single,1vs1,1,2135150116-07-sc,3,control_single,2vs2,1,1729150116-07-sc,3,inference,2vs1,1,1501150116-07-sc,3,control_single,1vs1,1,1654150116-07-sc,3,control_double,2vs1,1,1753150116-07-sc,3,inference,2vs1,0,1720150116-07-sc,3,control_single,2vs2,1,3051150116-08-sc,5,practice,NA,1,5415150116-08-sc,5,practice,NA,1,1680150116-08-sc,5,control_single,2vs2,1,1610150116-08-sc,5,inference,2vs1,1,2671150116-08-sc,5,control_double,3vs1,1,1632150116-08-sc,5,control_single,2vs2,1,1661150116-08-sc,5,inference,2vs1,1,1734150116-08-sc,5,control_single,2vs2,1,1845150116-08-sc,5,control_single,2vs2,1,1784150116-08-sc,5,control_double,2vs1,1,1468150116-08-sc,5,control_double,3vs1,1,2155150116-08-sc,5,control_single,1vs1,1,2439150116-08-sc,5,control_single,1vs1,1,2229150116-08-sc,5,inference,3vs1,1,2051150116-08-sc,5,control_single,1vs1,1,1481150116-08-sc,5,control_double,2vs1,1,1291150116-08-sc,5,inference,3vs1,1,1795150116-08-sc,5,control_single,1vs1,1,1118150116-09-sc,4,practice,NA,1,6309150116-09-sc,4,practice,NA,1,3355150116-09-sc,4,control_single,2vs2,1,5585150116-09-sc,4,inference,2vs1,1,6897150116-09-sc,4,control_double,3vs1,1,6028150116-09-sc,4,control_single,2vs2,1,2915150116-09-sc,4,inference,2vs1,0,4544150116-09-sc,4,control_single,2vs2,1,3356150116-09-sc,4,control_single,2vs2,1,5123150116-09-sc,4,control_double,2vs1,1,6972150116-09-sc,4,control_double,3vs1,1,2757150116-09-sc,4,control_single,1vs1,1,3550150116-09-sc,4,control_single,1vs1,1,5432150116-09-sc,4,inference,3vs1,0,8247150116-09-sc,4,control_single,1vs1,1,2787150116-09-sc,4,control_double,2vs1,1,3422150116-09-sc,4,inference,3vs1,0,4592150116-09-sc,4,control_single,1vs1,1,2067150116-10-sc,4,practice,NA,1,1532150116-10-sc,4,practice,NA,1,2214150116-10-sc,4,control_single,2vs2,1,2264150116-10-sc,4,inference,3vs1,1,1833150116-10-sc,4,control_double,3vs1,1,2340150116-10-sc,4,control_single,1vs1,1,1342150116-10-sc,4,inference,3vs1,1,6172150116-10-sc,4,control_single,1vs1,1,2464150116-10-sc,4,control_single,2vs2,1,2640150116-10-sc,4,control_double,2vs1,1,1761150116-10-sc,4,control_double,3vs1,1,2107150116-10-sc,4,control_single,1vs1,1,1899150116-10-sc,4,control_single,2vs2,1,1630150116-10-sc,4,inference,2vs1,1,1640150116-10-sc,4,control_single,1vs1,1,2844150116-10-sc,4,control_double,2vs1,1,1773150116-10-sc,4,inference,2vs1,1,2402150116-10-sc,4,control_single,2vs2,1,1753150116-11-sc,4,practice,NA,1,1763150116-11-sc,4,practice,NA,1,1559150116-11-sc,4,control_single,2vs2,1,1595150116-11-sc,4,inference,2vs1,1,1419150116-11-sc,4,control_double,3vs1,1,1564150116-11-sc,4,control_single,2vs2,1,1191150116-11-sc,4,inference,2vs1,1,1521150116-11-sc,4,control_single,2vs2,1,1772150116-11-sc,4,control_single,2vs2,1,1205150116-11-sc,4,control_double,2vs1,1,1310150116-11-sc,4,control_double,3vs1,1,1525150116-11-sc,4,control_single,1vs1,1,1484150116-11-sc,4,control_single,1vs1,1,849150116-11-sc,4,inference,3vs1,1,1144150116-11-sc,4,control_single,1vs1,1,1186150116-11-sc,4,control_double,2vs1,1,2150150116-11-sc,4,inference,3vs1,1,957150116-11-sc,4,control_single,1vs1,1,1200150116-12-sc,4,practice,NA,1,6214150116-12-sc,4,practice,NA,1,2658150116-12-sc,4,control_single,2vs2,1,2295150116-12-sc,4,inference,3vs1,1,1890150116-12-sc,4,control_double,3vs1,1,1751150116-12-sc,4,control_single,1vs1,1,1183150116-12-sc,4,inference,3vs1,1,1584150116-12-sc,4,control_single,1vs1,1,1316150116-12-sc,4,control_single,2vs2,1,1656150116-12-sc,4,control_double,2vs1,1,1327150116-12-sc,4,control_double,3vs1,1,1317150116-12-sc,4,control_single,1vs1,1,1189150116-12-sc,4,control_single,2vs2,1,1309150116-12-sc,4,inference,2vs1,1,1219150116-12-sc,4,control_single,1vs1,1,1254150116-12-sc,4,control_double,2vs1,1,1386150116-12-sc,4,inference,2vs1,1,1604150116-12-sc,4,control_single,2vs2,1,1264150116-13-sc,4,practice,NA,1,1339150116-13-sc,4,practice,NA,0,524150116-13-sc,4,control_single,2vs2,1,1252150116-13-sc,4,inference,3vs1,0,1298150116-13-sc,4,control_double,3vs1,1,3121150116-13-sc,4,control_single,1vs1,1,1332150116-13-sc,4,inference,3vs1,1,12939150116-13-sc,4,control_single,1vs1,1,2077150116-13-sc,4,control_single,2vs2,1,3260150116-13-sc,4,control_double,2vs1,1,2292150116-13-sc,4,control_double,3vs1,0,2848150116-14-sc,3,practice,NA,1,5252150116-14-sc,3,practice,NA,1,3003150116-14-sc,3,control_single,2vs2,1,3069150116-14-sc,3,inference,2vs1,1,2709150116-14-sc,3,control_double,3vs1,1,2517150116-14-sc,3,control_single,2vs2,1,2261150116-14-sc,3,inference,2vs1,1,2761150116-14-sc,3,control_single,2vs2,1,2166150116-14-sc,3,control_single,2vs2,1,1689150116-14-sc,3,control_double,2vs1,1,1545150116-14-sc,3,control_double,3vs1,1,1937150116-14-sc,3,control_single,1vs1,1,1982150116-14-sc,3,control_single,1vs1,1,6650150116-14-sc,3,inference,3vs1,1,1796150116-14-sc,3,control_single,1vs1,1,1498150116-14-sc,3,control_double,2vs1,1,2299150116-14-sc,3,control_single,1vs1,1,4371150116-14-sc,3,inference,3vs1,1,1441150116-15-sc,3,practice,NA,1,5080150116-15-sc,3,practice,NA,1,2196150116-15-sc,3,control_single,2vs2,1,2294150116-15-sc,3,inference,3vs1,1,3023150116-15-sc,3,control_double,3vs1,1,2970150116-15-sc,3,control_single,1vs1,1,2049150116-15-sc,3,inference,3vs1,1,2529150116-15-sc,3,control_single,1vs1,1,2829150116-15-sc,3,control_single,2vs2,1,2601150116-15-sc,3,control_double,2vs1,1,2995150116-15-sc,3,control_double,3vs1,1,2355150116-15-sc,3,control_single,1vs1,1,2265150116-15-sc,3,control_single,2vs2,1,2214150116-15-sc,3,inference,2vs1,1,1398150116-15-sc,3,control_single,1vs1,1,6291150116-16-sc,3,practice,NA,1,5078150116-16-sc,3,practice,NA,1,3396150116-16-sc,3,control_single,2vs2,1,2699150116-16-sc,3,inference,2vs1,1,2426150116-16-sc,3,control_double,3vs1,1,2318150116-16-sc,3,control_single,2vs2,1,1727150116-16-sc,3,inference,2vs1,1,1641150116-16-sc,3,control_single,2vs2,1,3939150116-16-sc,3,control_single,2vs2,1,2120150116-16-sc,3,control_double,2vs1,1,1561150116-16-sc,3,control_double,3vs1,1,2646150116-16-sc,3,control_single,1vs1,1,1384150116-16-sc,3,control_single,1vs1,1,1260150116-16-sc,3,inference,3vs1,1,1978150116-16-sc,3,control_single,1vs1,1,1672150116-16-sc,3,control_double,2vs1,1,2268150116-16-sc,3,inference,3vs1,1,1914150116-16-sc,3,control_single,1vs1,1,1852150116-17-sc,3,practice,NA,1,3021150116-17-sc,3,practice,NA,1,2627150116-17-sc,3,control_single,2vs2,1,1662150116-17-sc,3,inference,3vs1,1,1505150116-17-sc,3,control_double,3vs1,1,2177150116-17-sc,3,control_single,1vs1,1,2665150116-17-sc,3,inference,3vs1,0,3450150116-17-sc,3,control_single,1vs1,1,1892150116-17-sc,3,control_single,2vs2,1,1756150116-17-sc,3,control_double,2vs1,1,1767150116-17-sc,3,control_double,3vs1,1,1755150116-17-sc,3,control_single,1vs1,1,1942150116-17-sc,3,control_single,2vs2,1,1805150116-17-sc,3,inference,2vs1,1,1933150116-17-sc,3,control_single,1vs1,1,924150116-17-sc,3,control_double,2vs1,1,2465150116-17-sc,3,inference,2vs1,1,1348150116-17-sc,3,control_single,2vs2,1,2743150116-18-sc,2,practice,NA,1,8908150116-18-sc,2,practice,NA,1,1717150116-18-sc,2,control_single,2vs2,1,1795150116-18-sc,2,inference,2vs1,0,1589150116-18-sc,2,control_double,3vs1,1,5282150116-18-sc,2,control_single,2vs2,1,1681150116-18-sc,2,inference,2vs1,0,1461150116-18-sc,2,control_single,2vs2,1,2115150116-18-sc,2,control_single,2vs2,1,1115150116-18-sc,2,control_double,2vs1,1,1702150116-18-sc,2,control_double,3vs1,1,1643150116-18-sc,2,control_single,1vs1,1,1614150116-18-sc,2,control_single,1vs1,1,2013150116-18-sc,2,inference,3vs1,1,1576150116-18-sc,2,control_single,1vs1,1,7377150116-18-sc,2,control_double,2vs1,1,1826150116-18-sc,2,inference,3vs1,0,2091150116-18-sc,2,control_single,1vs1,1,1347150116-19-sc,3,practice,NA,1,3065150116-19-sc,3,practice,NA,1,2085150116-19-sc,3,control_single,2vs2,1,1909150116-19-sc,3,inference,3vs1,1,2084150116-19-sc,3,control_double,3vs1,1,4531150116-19-sc,3,control_single,1vs1,1,1785150116-19-sc,3,inference,3vs1,1,2763150116-19-sc,3,control_single,1vs1,1,7068150116-19-sc,3,control_single,2vs2,1,1345150116-19-sc,3,control_double,2vs1,1,2188150116-19-sc,3,control_double,3vs1,1,2411150116-19-sc,3,control_single,1vs1,1,1550150116-19-sc,3,control_single,2vs2,1,2345150116-19-sc,3,inference,2vs1,1,1001150116-19-sc,3,control_single,1vs1,0,1044150116-19-sc,3,control_double,2vs1,1,1731150116-19-sc,3,inference,2vs1,1,1675150116-19-sc,3,control_single,2vs2,1,1815150116-20-sc,4,practice,NA,1,3940150116-20-sc,4,practice,NA,1,2842150116-20-sc,4,control_single,2vs2,1,2373150116-20-sc,4,inference,2vs1,0,12271150116-20-sc,4,control_double,3vs1,1,9599150116-20-sc,4,control_single,2vs2,1,6383150116-20-sc,4,inference,2vs1,0,10469150116-20-sc,4,control_single,2vs2,1,8767150116-20-sc,4,control_single,2vs2,1,2032150116-20-sc,4,control_double,2vs1,1,2158150116-20-sc,4,control_double,3vs1,1,2528150116-20-sc,4,control_single,1vs1,1,2344150116-20-sc,4,control_single,1vs1,0,6751150116-20-sc,4,inference,3vs1,1,1960150116-20-sc,4,control_single,1vs1,1,6793150116-20-sc,4,control_double,2vs1,0,5033150116-20-sc,4,inference,3vs1,0,6411150116-20-sc,4,control_single,1vs1,1,626150116-21-sc,4,practice,NA,1,4963150116-21-sc,4,practice,NA,1,5357150116-21-sc,4,control_single,2vs2,1,2726150116-21-sc,4,inference,3vs1,1,1851150116-21-sc,4,control_double,3vs1,1,1299150116-21-sc,4,control_single,1vs1,1,3450150116-21-sc,4,inference,3vs1,1,3377150116-21-sc,4,control_single,1vs1,1,1523150116-21-sc,4,control_single,2vs2,1,2428150116-21-sc,4,control_double,2vs1,1,3656150116-21-sc,4,control_double,3vs1,1,1499150116-21-sc,4,control_single,1vs1,1,1608150116-21-sc,4,control_single,2vs2,1,2912150116-21-sc,4,inference,2vs1,1,1131150116-21-sc,4,control_single,1vs1,1,1222150116-21-sc,4,control_double,2vs1,1,1101150116-21-sc,4,inference,2vs1,1,1698150116-21-sc,4,control_single,2vs2,1,1672150116-22-sc,NA,practice,NA,1,5244150116-22-sc,NA,practice,NA,1,2862150116-22-sc,NA,control_single,2vs2,1,2340150116-22-sc,NA,inference,2vs1,0,4203150116-22-sc,NA,control_double,3vs1,1,1740150116-22-sc,NA,control_single,2vs2,1,1331150116-22-sc,NA,inference,2vs1,1,2043150116-22-sc,NA,control_single,2vs2,1,2398150116-22-sc,NA,control_single,2vs2,1,4761150116-22-sc,NA,control_double,2vs1,0,2449150116-22-sc,NA,control_double,3vs1,1,3448150116-22-sc,NA,control_single,1vs1,1,1800150116-22-sc,NA,control_single,1vs1,1,7858150116-22-sc,NA,inference,3vs1,1,2008150116-22-sc,NA,control_single,1vs1,1,1880150116-22-sc,NA,control_double,2vs1,1,2627150116-22-sc,NA,inference,3vs1,1,2274150116-22-sc,NA,control_single,1vs1,1,2972150120,NA,practice,NA,1,8459150120,NA,practice,NA,1,2614150120,NA,control_single,2vs2,1,1915150120,NA,inference,3vs1,1,11966150120,NA,control_double,3vs1,1,3542150120,NA,control_single,1vs1,1,1841150120,NA,inference,3vs1,1,1750150120,NA,control_single,1vs1,1,1643150120,NA,control_single,2vs2,1,2254150120,NA,control_double,2vs1,1,1855150120,NA,control_double,3vs1,1,1348150120,NA,control_single,1vs1,1,1214150120,NA,control_single,2vs2,1,1116150120,NA,inference,2vs1,1,4050150120,NA,control_single,1vs1,1,1291150120,NA,control_double,2vs1,1,2156150120,NA,inference,2vs1,1,1693150120,NA,control_single,2vs2,1,1771150120-01-sc,4,practice,NA,1,1898150120-01-sc,4,practice,NA,1,1158150120-01-sc,4,control_single,2vs2,1,2243150120-01-sc,4,inference,2vs1,1,1840150120-01-sc,4,control_double,3vs1,1,2692150120-01-sc,4,control_single,2vs2,1,1503150120-01-sc,4,inference,2vs1,1,2222150120-01-sc,4,control_single,2vs2,1,2253150120-01-sc,4,control_single,2vs2,1,1361150120-01-sc,4,control_double,2vs1,1,3006150120-01-sc,4,control_double,3vs1,0,2571150120-01-sc,4,control_single,1vs1,1,3942150120-01-sc,4,control_single,1vs1,1,3172150120-01-sc,4,inference,3vs1,1,2083150120-01-sc,4,control_single,1vs1,1,1552150120-01-sc,4,control_double,2vs1,0,3168150120-01-sc,4,inference,3vs1,1,2409150120-01-sc,4,control_single,1vs1,0,1269150120-03-sc,4,practice,NA,1,5699150120-03-sc,4,practice,NA,1,2060150120-03-sc,4,control_single,2vs2,1,1812150120-03-sc,4,inference,3vs1,1,1463150120-03-sc,4,control_double,3vs1,1,3009150120-03-sc,4,control_single,1vs1,1,1988150120-03-sc,4,inference,3vs1,1,5091150120-03-sc,4,control_single,1vs1,1,1730150120-03-sc,4,control_single,2vs2,1,1882150120-03-sc,4,control_double,2vs1,1,2097150120-03-sc,4,control_double,3vs1,1,1747150120-03-sc,4,control_single,1vs1,1,1377150120-03-sc,4,control_single,2vs2,1,2660150120-03-sc,4,inference,2vs1,1,1629150120-03-sc,4,control_single,1vs1,1,1495150120-03-sc,4,control_double,2vs1,1,1533150120-03-sc,4,inference,2vs1,0,2040150120-03-sc,4,control_single,2vs2,1,1742150120-04-sc,4,practice,NA,1,1730150120-04-sc,4,practice,NA,1,984150120-04-sc,4,control_single,2vs2,1,2152150120-04-sc,4,inference,2vs1,1,2459150120-04-sc,4,control_double,3vs1,0,1487150120-04-sc,4,control_single,2vs2,0,1185150120-04-sc,4,inference,2vs1,1,2724150120-04-sc,4,control_single,2vs2,1,2077150120-04-sc,4,control_single,2vs2,1,649150120-04-sc,4,control_double,2vs1,1,1769150120-04-sc,4,control_double,3vs1,1,2379150120-04-sc,4,control_single,1vs1,1,1417150120-04-sc,4,control_single,1vs1,1,1194150120-04-sc,4,inference,3vs1,1,1355150120-04-sc,4,control_single,1vs1,1,1049150120-04-sc,4,control_double,2vs1,1,1024150120-04-sc,4,inference,3vs1,1,1417150120-04-sc,4,control_single,1vs1,1,994150120-05-sc,3,practice,NA,0,4486150120-05-sc,3,practice,NA,1,5249150120-05-sc,3,control_single,2vs2,1,6768150120-05-sc,3,inference,2vs1,1,3559150120-05-sc,3,control_double,3vs1,1,3378150120-05-sc,3,control_single,2vs2,1,2371150120-05-sc,3,inference,2vs1,1,3165150120-05-sc,3,control_single,2vs2,1,2720150120-05-sc,3,control_single,2vs2,1,3924150120-05-sc,3,control_double,2vs1,1,2384150120-05-sc,3,control_double,3vs1,1,2412150120-05-sc,3,control_single,1vs1,1,2864150120-05-sc,3,control_single,1vs1,1,2280150120-05-sc,3,inference,3vs1,1,2181150120-05-sc,3,control_single,1vs1,1,2217150120-05-sc,3,control_double,2vs1,1,2465150120-05-sc,3,inference,3vs1,0,4096150120-05-sc,3,control_single,1vs1,1,3570150120-06-sc,4,practice,NA,1,2317150120-06-sc,4,practice,NA,1,1672150120-06-sc,4,control_single,2vs2,1,1469150120-06-sc,4,inference,3vs1,1,2563150120-06-sc,4,control_double,3vs1,1,2313150120-06-sc,4,control_single,1vs1,1,1132150120-06-sc,4,inference,3vs1,1,5311150120-06-sc,4,control_single,1vs1,1,1637150120-06-sc,4,control_single,2vs2,1,1523150120-06-sc,4,control_double,2vs1,1,2188150120-06-sc,4,control_double,3vs1,1,2040150120-06-sc,4,control_single,1vs1,1,1504150120-06-sc,4,control_single,2vs2,1,1815150120-06-sc,4,inference,2vs1,1,1649150120-06-sc,4,control_single,1vs1,1,1218150120-06-sc,4,control_double,2vs1,1,4086150120-06-sc,4,inference,2vs1,1,1225150120-06-sc,4,control_single,2vs2,1,1746150122-01-sc,4,practice,NA,1,4750150122-01-sc,4,practice,NA,1,3200150122-01-sc,4,control_single,2vs2,1,2740150122-01-sc,4,inference,3vs1,1,3322150122-01-sc,4,control_double,3vs1,1,4867150122-01-sc,4,control_single,1vs1,1,1461150122-01-sc,4,inference,3vs1,1,6829150122-01-sc,4,control_single,1vs1,1,2527150122-01-sc,4,control_single,2vs2,1,2202150122-01-sc,4,control_double,2vs1,1,2251150122-01-sc,4,control_double,3vs1,1,2209150122-01-sc,4,control_single,1vs1,1,2107150122-01-sc,4,control_single,2vs2,1,1681150122-01-sc,4,inference,2vs1,1,2417150122-01-sc,4,control_single,1vs1,1,1373150122-01-sc,4,control_double,2vs1,1,1395150122-01-sc,4,inference,2vs1,1,1984150122-01-sc,4,control_single,2vs2,1,2259150122-02-sc,4,practice,NA,1,2062150122-02-sc,4,practice,NA,1,1608150122-02-sc,4,control_single,2vs2,1,2493150122-02-sc,4,inference,2vs1,1,8764150122-02-sc,4,control_double,3vs1,1,2005150122-02-sc,4,control_single,2vs2,1,1650150122-02-sc,4,inference,2vs1,1,2622150122-02-sc,4,control_single,2vs2,1,2230150122-02-sc,4,control_single,2vs2,1,2059150122-02-sc,4,control_double,2vs1,1,2524150122-02-sc,4,control_double,3vs1,1,1789150122-02-sc,4,control_single,1vs1,1,2407150122-02-sc,4,control_single,1vs1,1,1670150122-02-sc,4,inference,3vs1,1,2108150122-02-sc,4,control_single,1vs1,1,3553150122-02-sc,4,control_double,2vs1,1,2172150122-02-sc,4,inference,3vs1,1,2967150122-02-sc,4,control_single,1vs1,1,1847150122-03-sc,3,practice,NA,1,3630150122-03-sc,3,practice,NA,1,2012150122-03-sc,3,control_single,2vs2,1,2436150122-03-sc,3,inference,3vs1,1,3002150122-03-sc,3,control_double,3vs1,1,3313150122-03-sc,3,control_single,1vs1,1,7768150122-03-sc,3,inference,3vs1,1,9019150122-03-sc,3,control_single,1vs1,1,2404150122-03-sc,3,control_single,2vs2,1,3186150122-03-sc,3,control_double,2vs1,1,3443150122-03-sc,3,control_double,3vs1,1,10206150122-03-sc,3,control_single,1vs1,1,2578150122-03-sc,3,control_single,2vs2,1,2594150122-03-sc,3,inference,2vs1,0,7724150122-03-sc,3,control_single,1vs1,1,1714150122-03-sc,3,control_double,2vs1,1,3515150122-03-sc,3,inference,2vs1,1,2729150122-03-sc,3,control_single,2vs2,1,2032150122-04-sc,4,practice,NA,1,3053150122-04-sc,4,practice,NA,1,1548150122-04-sc,4,control_single,2vs2,1,2091150122-04-sc,4,inference,2vs1,1,3008150122-04-sc,4,control_double,3vs1,1,1571150122-04-sc,4,control_single,2vs2,1,1670150122-04-sc,4,inference,2vs1,0,5524150122-04-sc,4,control_single,2vs2,1,2439150122-04-sc,4,control_single,2vs2,1,1890150122-04-sc,4,control_double,2vs1,1,1560150122-04-sc,4,control_double,3vs1,1,1997150122-04-sc,4,control_single,1vs1,1,1401150122-04-sc,4,control_single,1vs1,1,2599150122-04-sc,4,inference,3vs1,1,1821150122-04-sc,4,control_single,1vs1,1,4348150122-04-sc,4,control_double,2vs1,1,3162150122-04-sc,4,inference,3vs1,1,2170150122-04-sc,4,control_single,1vs1,1,1828150122-05-sc,4,practice,NA,1,5299150122-05-sc,4,practice,NA,1,2170150122-05-sc,4,control_single,2vs2,1,3050150122-05-sc,4,inference,3vs1,1,1990150122-05-sc,4,control_double,3vs1,1,3187150122-05-sc,4,control_single,1vs1,1,1976150122-05-sc,4,inference,3vs1,1,1445150122-05-sc,4,control_single,1vs1,1,2541150122-05-sc,4,control_single,2vs2,1,2187150122-05-sc,4,control_double,2vs1,1,2023150122-05-sc,4,control_double,3vs1,1,1819150122-05-sc,4,control_single,1vs1,1,2257150122-05-sc,4,control_single,2vs2,1,1787150122-05-sc,4,inference,2vs1,1,3517150122-05-sc,4,control_single,1vs1,1,1506150122-05-sc,4,control_double,2vs1,1,2532150122-05-sc,4,inference,2vs1,1,2435150122-05-sc,4,control_single,2vs2,1,1392150129-01-sc,4,practice,NA,1,4091150129-01-sc,4,practice,NA,1,1526150129-01-sc,4,control_single,2vs2,1,2200150129-01-sc,4,inference,2vs1,1,2702150129-01-sc,4,control_double,3vs1,1,2704150129-01-sc,4,control_single,2vs2,1,1439150129-01-sc,4,inference,2vs1,1,2122150129-01-sc,4,control_single,2vs2,1,2873150129-01-sc,4,control_single,2vs2,1,1726150129-01-sc,4,control_double,2vs1,1,1392150129-01-sc,4,control_double,3vs1,1,2094150129-01-sc,4,control_single,1vs1,1,2034150129-01-sc,4,control_single,1vs1,1,1782150129-01-sc,4,inference,3vs1,1,2054150129-01-sc,4,control_single,1vs1,1,1638150129-01-sc,4,control_double,2vs1,0,4902150129-01-sc,4,inference,3vs1,1,1683150129-01-sc,4,control_single,1vs1,1,2881150129-02-sc,4,practice,NA,1,6730150129-02-sc,4,practice,NA,1,2916150129-02-sc,4,control_single,2vs2,1,2679150129-02-sc,4,inference,3vs1,1,3495150129-02-sc,4,control_double,3vs1,1,3460150129-02-sc,4,control_single,1vs1,1,2577150129-02-sc,4,inference,3vs1,1,3056150129-02-sc,4,control_single,1vs1,1,3259150129-02-sc,4,control_single,2vs2,1,3254150129-02-sc,4,control_double,2vs1,1,3218150129-02-sc,4,control_double,3vs1,1,6913150129-02-sc,4,control_single,1vs1,1,2600150129-02-sc,4,control_single,2vs2,1,3095150129-02-sc,4,inference,2vs1,1,2321150129-02-sc,4,control_single,1vs1,1,4085150129-02-sc,4,control_double,2vs1,1,2171150129-02-sc,4,inference,2vs1,1,2084150129-02-sc,4,control_single,2vs2,1,2431150217,NA,practice,NA,1,1417150217,NA,practice,NA,1,1345150217,NA,control_single,2vs2,1,2772150217,NA,inference,3vs1,1,2080150217,NA,control_double,3vs1,1,2289150217,NA,control_single,1vs1,1,1765150217,NA,inference,3vs1,1,1807150217,NA,control_single,1vs1,1,1216150217,NA,control_single,2vs2,1,2003150217,NA,control_double,2vs1,1,1573150217,NA,control_double,3vs1,1,1675150217,NA,control_single,1vs1,1,1473150217,NA,control_single,2vs2,1,1624150217,NA,inference,2vs1,1,1928150217,NA,control_single,1vs1,1,1389150217,NA,control_double,2vs1,1,1379150217,NA,control_single,2vs2,1,1616150219-01-sc,NA,practice,NA,1,5612150219-01-sc,NA,practice,NA,1,9402150219-01-sc,NA,control_single,2vs2,1,2458150219-01-sc,NA,inference,2vs1,1,3227150219-01-sc,NA,control_double,3vs1,1,2007150219-01-sc,NA,control_single,2vs2,1,1819150219-01-sc,NA,inference,2vs1,0,5535150219-01-sc,NA,control_single,2vs2,1,1555150219-01-sc,NA,control_single,2vs2,1,2300150219-01-sc,NA,control_double,2vs1,1,1638150219-01-sc,NA,control_double,3vs1,1,2700150219-01-sc,NA,control_single,1vs1,1,1635150219-01-sc,NA,control_single,1vs1,1,2226150219-01-sc,NA,inference,3vs1,1,7177150219-01-sc,NA,control_single,1vs1,0,6044150219-01-sc,NA,control_double,2vs1,1,1138150219-01-sc,NA,inference,3vs1,0,1622150219-01-sc,NA,control_single,1vs1,1,1243150219-02-sc,NA,practice,NA,1,6209150219-02-sc,NA,practice,NA,1,1526150219-02-sc,NA,control_single,2vs2,1,1494150219-02-sc,NA,inference,3vs1,1,1197150219-02-sc,NA,control_double,3vs1,1,1875150219-02-sc,NA,control_single,1vs1,1,1027150219-02-sc,NA,inference,3vs1,0,948150219-02-sc,NA,control_single,1vs1,1,1059150219-02-sc,NA,control_single,2vs2,1,1516150219-02-sc,NA,control_double,2vs1,1,1696150219-02-sc,NA,control_double,3vs1,1,735150219-02-sc,NA,control_single,1vs1,1,1003150219-02-sc,NA,control_single,2vs2,1,1354150219-02-sc,NA,inference,2vs1,1,1405150219-02-sc,NA,control_single,1vs1,1,1724150219-02-sc,NA,control_double,2vs1,1,839150219-02-sc,NA,inference,2vs1,1,2188150219-02-sc,NA,control_single,2vs2,1,1943150219-03-sc,NA,practice,NA,1,1380150219-03-sc,NA,practice,NA,0,1159150219-03-sc,NA,control_single,2vs2,1,1937150219-03-sc,NA,inference,3vs1,1,2662150219-03-sc,NA,control_double,3vs1,1,8755150219-03-sc,NA,control_single,1vs1,1,1285150219-03-sc,NA,inference,3vs1,0,9823150219-03-sc,NA,control_single,1vs1,1,6209150219-03-sc,NA,control_single,2vs2,1,1785150219-03-sc,NA,control_double,2vs1,1,2000150219-03-sc,NA,control_double,3vs1,1,2614150219-03-sc,NA,control_single,1vs1,1,1985150219-03-sc,NA,control_single,2vs2,1,3613150219-03-sc,NA,inference,2vs1,1,3202150219-03-sc,NA,control_single,1vs1,1,1098150219-03-sc,NA,control_double,2vs1,1,2858150219-03-sc,NA,inference,2vs1,1,1229150219-03-sc,NA,control_single,2vs2,1,2744150219-04-sc,NA,practice,NA,1,8442150219-04-sc,NA,practice,NA,1,3786150219-04-sc,NA,control_single,2vs2,1,2880150219-04-sc,NA,inference,2vs1,1,2594150219-04-sc,NA,control_double,3vs1,1,2579150219-04-sc,NA,control_single,2vs2,1,2373150219-04-sc,NA,inference,2vs1,1,2499150219-04-sc,NA,control_single,2vs2,1,2125150219-04-sc,NA,control_single,2vs2,1,1741150219-04-sc,NA,control_double,2vs1,1,2109150219-04-sc,NA,control_double,3vs1,1,1429150219-04-sc,NA,control_single,1vs1,1,1389150219-04-sc,NA,control_single,1vs1,1,2698150219-04-sc,NA,inference,3vs1,0,4329150219-04-sc,NA,control_single,1vs1,1,1572150219-04-sc,NA,control_double,2vs1,1,1429150219-04-sc,NA,inference,3vs1,0,5367150219-04-sc,NA,control_single,1vs1,1,1292150219-05-sc,NA,practice,NA,1,6958150219-05-sc,NA,practice,NA,1,1314150219-05-sc,NA,control_single,2vs2,1,1814150219-05-sc,NA,inference,3vs1,1,5092150219-05-sc,NA,control_double,3vs1,1,2268150219-05-sc,NA,control_single,1vs1,1,1786150219-05-sc,NA,inference,3vs1,0,4107150219-05-sc,NA,control_single,1vs1,1,1851150219-05-sc,NA,control_single,2vs2,1,1745150219-05-sc,NA,control_double,2vs1,1,2833150219-05-sc,NA,practice,NA,1,2995150219-05-sc,NA,practice,NA,1,1355150219-05-sc,NA,control_single,2vs2,1,1705150219-05-sc,NA,inference,2vs1,1,2803150219-05-sc,NA,control_double,3vs1,1,1597150219-05-sc,NA,control_single,2vs2,1,1879150219-05-sc,NA,inference,2vs1,0,2619150219-05-sc,NA,control_single,2vs2,1,1687150219-05-sc,NA,control_single,2vs2,1,1775150219-05-sc,NA,control_double,2vs1,1,1898150219-05-sc,NA,control_double,3vs1,1,2585150219-05-sc,NA,control_single,1vs1,1,1352150219-05-sc,NA,control_single,1vs1,1,2442150219-05-sc,NA,inference,3vs1,1,2596150219-05-sc,NA,control_single,1vs1,1,2308150219-05-sc,NA,control_double,2vs1,1,2503150219-05-sc,NA,inference,3vs1,1,1949150219-05-sc,NA,control_single,1vs1,1,1162150219-06-sc,NA,practice,NA,1,2780150219-06-sc,NA,practice,NA,1,1707150219-06-sc,NA,control_single,2vs2,1,2174150219-06-sc,NA,inference,3vs1,1,2552150219-06-sc,NA,control_double,3vs1,1,4111150219-06-sc,NA,control_single,1vs1,1,1894150219-06-sc,NA,inference,3vs1,1,6432150219-06-sc,NA,control_single,1vs1,0,2380150219-06-sc,NA,control_single,2vs2,1,2015150219-06-sc,NA,control_double,2vs1,1,1978150219-06-sc,NA,control_double,3vs1,1,1780150219-06-sc,NA,control_single,1vs1,1,2003150219-06-sc,NA,control_single,2vs2,1,1575150219-06-sc,NA,inference,2vs1,1,2648150219-06-sc,NA,control_single,1vs1,1,1720150219-06-sc,NA,control_double,2vs1,1,1367150219-06-sc,NA,inference,2vs1,0,3279150219-06-sc,NA,control_single,2vs2,1,1403404111,NA,practice,NA,1,2061404111,NA,practice,NA,1,1339404111,NA,control_single,2vs2,1,2013404111,NA,inference,3vs1,1,5160404111,NA,control_double,3vs1,1,2249404111,NA,control_single,1vs1,1,1257404111,NA,inference,3vs1,1,2253404111,NA,control_single,1vs1,1,1695404111,NA,control_single,2vs2,1,1803404111,NA,control_double,2vs1,1,2288404111,NA,control_double,3vs1,1,2179404111,NA,control_single,1vs1,1,2294404111,NA,control_single,2vs2,1,1660404111,NA,inference,2vs1,1,2103404111,NA,control_single,1vs1,1,1416404111,NA,control_double,2vs1,1,1595404111,NA,inference,2vs1,1,4808404111,NA,control_single,2vs2,1,2394404112,NA,practice,NA,1,5239404112,NA,practice,NA,1,1572404112,NA,control_single,2vs2,1,3022404112,NA,inference,3vs1,1,2239404112,NA,control_double,3vs1,1,3325404112,NA,control_single,1vs1,1,1760404112,NA,inference,3vs1,1,2298404112,NA,control_single,1vs1,1,3262404112,NA,control_single,2vs2,1,1854404112,NA,control_double,2vs1,1,2646404112,NA,control_double,3vs1,1,1797404112,NA,control_single,1vs1,1,3882404112,NA,control_single,2vs2,1,1868404112,NA,inference,2vs1,1,2522404112,NA,control_single,1vs1,1,2185404112,NA,control_double,2vs1,1,2546404112,NA,inference,2vs1,1,1994404112,NA,control_single,2vs2,1,3178Gs0529091,NA,practice,NA,1,3302Gs0529091,NA,practice,NA,1,1948Gs0529091,NA,control_single,2vs2,1,3027Gs0529091,NA,inference,3vs1,1,1532Gs0529091,NA,control_double,3vs1,1,2612Gs0529091,NA,control_single,1vs1,1,2164Gs0529091,NA,inference,3vs1,1,2062Gs0529091,NA,control_single,1vs1,1,2730Gs0529091,NA,control_single,2vs2,1,3241Gs0529091,NA,control_double,2vs1,1,6119Gs0529091,NA,control_double,3vs1,1,1316Gs0529091,NA,control_single,1vs1,1,3068Gs0529091,NA,control_single,2vs2,1,3720Gs0529091,NA,inference,2vs1,1,2469Gs0529091,NA,control_single,1vs1,0,3197Gs0529091,NA,control_double,2vs1,1,2077Gs0529091,NA,inference,2vs1,1,1400Gs0529091,NA,control_single,2vs2,1,2268150420-01-sc,NA,practice,NA,1,2964150420-01-sc,NA,practice,NA,1,1860150420-01-sc,NA,control_single,2vs2,1,2607150420-01-sc,NA,inference,3vs1,1,1927150420-01-sc,NA,control_single,1vs1,1,1683150420-01-sc,NA,inference,3vs1,1,1244150420-01-sc,NA,control_single,1vs1,1,3627150420-01-sc,NA,control_single,2vs2,0,4618150420-01-sc,NA,control_double,2vs1,0,2878150420-01-sc,NA,control_double,3vs1,0,5660150420-01-sc,NA,control_single,1vs1,1,2046150420-01-sc,NA,control_single,2vs2,0,709150420-01-sc,NA,inference,2vs1,1,3921150420-01-sc,NA,control_single,1vs1,0,3395150420-01-sc,NA,control_double,2vs1,1,2955150420-01-sc,NA,inference,2vs1,1,1624150420-01-sc,NA,control_single,2vs2,0,2408150420-02-sc,3,practice,NA,0,1476150420-02-sc,3,practice,NA,0,1027150420-02-sc,3,control_single,2vs2,1,4331150420-02-sc,3,inference,3vs1,0,1638150420-02-sc,3,control_double,3vs1,1,5366150420-02-sc,3,control_single,1vs1,1,1752150420-02-sc,3,inference,3vs1,1,5381150420-02-sc,3,control_single,1vs1,1,3604150420-02-sc,3,control_single,2vs2,1,2553150420-02-sc,3,control_double,2vs1,1,2258150420-02-sc,3,control_double,3vs1,1,1859150420-02-sc,3,control_single,1vs1,1,2008150420-02-sc,3,control_single,2vs2,1,2230150420-02-sc,3,inference,2vs1,1,7521150420-02-sc,3,control_single,1vs1,1,1711150420-02-sc,3,control_double,2vs1,1,1984150420-02-sc,3,inference,2vs1,1,2423150420-02-sc,3,control_single,2vs2,1,2825150420-03-sc,5,practice,NA,1,2244150420-03-sc,5,practice,NA,1,1359150420-03-sc,5,control_single,2vs2,1,1519150420-03-sc,5,inference,3vs1,1,2663150420-03-sc,5,control_double,3vs1,0,2458150420-03-sc,5,control_single,1vs1,1,1069150420-03-sc,5,inference,3vs1,1,1211150420-03-sc,5,control_single,1vs1,1,1909150420-03-sc,5,control_single,2vs2,1,1790150420-03-sc,5,control_double,2vs1,1,2256150420-03-sc,5,control_double,3vs1,1,1504150420-03-sc,5,control_single,1vs1,1,1456150420-03-sc,5,control_single,2vs2,1,1535150420-03-sc,5,inference,2vs1,1,1274150420-03-sc,5,control_single,1vs1,1,1327150420-03-sc,5,control_double,2vs1,1,1469150420-03-sc,5,inference,2vs1,1,1837150420-03-sc,5,control_single,2vs2,1,1860150420-04-sc,5,practice,NA,1,5507150420-04-sc,5,practice,NA,1,1598150420-04-sc,5,control_single,2vs2,0,2200150420-04-sc,5,inference,3vs1,1,2422150420-04-sc,5,control_double,3vs1,1,2608150420-04-sc,5,control_single,1vs1,1,1758150420-04-sc,5,inference,3vs1,1,2367150420-04-sc,5,control_single,1vs1,1,2892150420-04-sc,5,control_single,2vs2,1,2397150420-04-sc,5,control_double,2vs1,1,1629150420-04-sc,5,control_double,3vs1,1,1629150420-04-sc,5,control_single,1vs1,1,1203150420-04-sc,5,control_single,2vs2,1,2362150420-04-sc,5,inference,2vs1,1,4646150420-04-sc,5,control_double,2vs1,1,1852150420-04-sc,5,inference,2vs1,1,4773150420-04-sc,5,control_single,2vs2,1,2133150420-05-sc,4,practice,NA,1,1864150420-05-sc,4,practice,NA,1,1511150420-05-sc,4,control_single,2vs2,1,3319150420-05-sc,4,inference,3vs1,1,2093150420-05-sc,4,control_double,3vs1,1,2318150420-05-sc,4,control_single,1vs1,1,1141150420-05-sc,4,inference,3vs1,1,9206150420-05-sc,4,control_single,1vs1,1,2025150420-05-sc,4,control_single,2vs2,1,2322150420-05-sc,4,control_double,2vs1,1,1408150420-05-sc,4,control_double,3vs1,0,701150420-05-sc,4,control_single,1vs1,1,953150420-05-sc,4,control_single,2vs2,1,1662150420-05-sc,4,inference,2vs1,1,3105150420-05-sc,4,control_single,1vs1,1,2565150420-05-sc,4,control_double,2vs1,1,1423150420-05-sc,4,inference,2vs1,1,1702150420-05-sc,4,control_single,2vs2,1,1353150420-06-sc,4,practice,NA,1,9538150420-06-sc,4,practice,NA,1,2646150420-06-sc,4,control_single,2vs2,1,3091150420-06-sc,4,inference,3vs1,1,5006150420-06-sc,4,control_double,3vs1,1,3126150420-06-sc,4,control_single,1vs1,1,2161150420-06-sc,4,inference,3vs1,1,3898150420-06-sc,4,control_single,1vs1,1,4297150420-06-sc,4,control_single,2vs2,1,2553150420-06-sc,4,control_double,2vs1,1,2243150420-06-sc,4,control_double,3vs1,1,2388150420-06-sc,4,control_single,1vs1,1,2524150420-06-sc,4,control_single,2vs2,1,2229150420-06-sc,4,inference,2vs1,1,2837150420-06-sc,4,control_single,1vs1,1,4224150420-06-sc,4,control_double,2vs1,1,2381150420-06-sc,4,inference,2vs1,1,3338150420-06-sc,4,control_single,2vs2,1,3028150424-01-sc,5,practice,NA,1,1771150424-01-sc,5,practice,NA,1,1371150424-01-sc,5,control_single,2vs2,1,1668150424-01-sc,5,inference,3vs1,0,3427150424-01-sc,5,control_double,3vs1,1,2436150424-01-sc,5,control_single,1vs1,1,1603150424-01-sc,5,inference,3vs1,1,2356150424-01-sc,5,control_single,1vs1,1,1609150424-01-sc,5,control_single,2vs2,1,2165150424-01-sc,5,control_double,2vs1,1,2890150424-01-sc,5,control_double,3vs1,1,1483150424-01-sc,5,control_single,1vs1,1,1682150424-01-sc,5,control_single,2vs2,1,2023150424-01-sc,5,inference,2vs1,1,1597150424-01-sc,5,control_single,1vs1,1,1395150424-01-sc,5,control_double,2vs1,1,1536150424-01-sc,5,inference,2vs1,1,1265150424-01-sc,5,control_single,2vs2,1,1990150424-02-sc,5,practice,NA,1,1729150424-02-sc,5,practice,NA,1,1534150424-02-sc,5,control_single,2vs2,1,1771150424-02-sc,5,inference,3vs1,1,2090150424-02-sc,5,control_double,3vs1,1,1997150424-02-sc,5,control_single,1vs1,1,1311150424-02-sc,5,inference,3vs1,1,3288150424-02-sc,5,control_single,1vs1,1,2141150424-02-sc,5,control_single,2vs2,1,2708150424-02-sc,5,control_double,2vs1,1,2190150424-02-sc,5,control_double,3vs1,1,2716150424-02-sc,5,control_single,1vs1,1,1709150424-02-sc,5,control_single,2vs2,1,1527150424-02-sc,5,inference,2vs1,1,2196150424-02-sc,5,control_single,1vs1,1,1174150424-02-sc,5,control_double,2vs1,1,1289150424-02-sc,5,inference,2vs1,1,4438150424-02-sc,5,control_single,2vs2,1,1967150424-03-sc,4,control_single,2vs2,1,3542150424-03-sc,4,inference,3vs1,1,8809150424-03-sc,4,control_double,3vs1,1,4462150424-03-sc,4,control_single,1vs1,1,8931150424-03-sc,4,inference,3vs1,1,4004150424-03-sc,4,control_single,1vs1,1,1714150424-03-sc,4,control_single,2vs2,1,2613150424-03-sc,4,control_double,2vs1,1,2184150424-03-sc,4,control_double,3vs1,1,1799150424-03-sc,4,control_single,1vs1,1,1710150424-03-sc,4,control_single,2vs2,1,3319150424-03-sc,4,inference,2vs1,1,9152150424-03-sc,4,control_single,1vs1,1,1848150424-03-sc,4,control_double,2vs1,1,2427150513-01-sc,2,practice,NA,1,2956150513-01-sc,2,practice,NA,1,1469150513-01-sc,2,control_single,2vs2,1,1806150513-02-sc,3,practice,NA,1,2357150513-02-sc,3,practice,NA,1,1960150513-02-sc,3,control_single,2vs2,1,2256150513-02-sc,3,inference,3vs1,1,4062150513-02-sc,3,control_single,1vs1,1,1798150518-01-sc,2,practice,NA,1,12010150518-01-sc,2,control_single,2vs2,1,3085150518-01-sc,2,inference,3vs1,0,1566150518-01-sc,2,control_double,3vs1,1,8932150518-01-sc,2,control_single,1vs1,0,5387150518-01-sc,2,inference,3vs1,1,5064150518-01-sc,2,control_single,1vs1,1,3884150518-01-sc,2,control_single,2vs2,0,2928150518-01-sc,2,control_double,2vs1,0,6709150518-01-sc,2,control_double,3vs1,0,3419150518-01-sc,2,control_single,1vs1,0,3813150518-01-sc,2,control_single,2vs2,1,4762150518-01-sc,2,inference,2vs1,1,11541150518-01-sc,2,control_single,1vs1,0,12075150518-01-sc,2,control_double,2vs1,1,6329150520-01-sc,3,practice,NA,1,6720150520-01-sc,3,practice,NA,1,1816150520-01-sc,3,control_single,2vs2,1,2318150520-01-sc,3,inference,3vs1,1,1821150520-01-sc,3,control_double,3vs1,1,2320150520-01-sc,3,control_single,1vs1,1,1919150520-01-sc,3,inference,3vs1,1,4447150520-01-sc,3,control_single,1vs1,1,2740150520-01-sc,3,control_single,2vs2,1,1993150520-01-sc,3,control_double,2vs1,1,2602150520-01-sc,3,control_double,3vs1,0,10670150520-01-sc,3,control_single,1vs1,1,2020150520-01-sc,3,control_single,2vs2,1,1488150520-01-sc,3,inference,2vs1,1,4606150520-01-sc,3,control_single,1vs1,1,5888150520-02-sc,3,practice,NA,1,3816150520-02-sc,3,control_single,2vs2,1,6616150520-02-sc,3,inference,3vs1,1,3608150520-02-sc,3,control_double,3vs1,1,3880150520-02-sc,3,control_single,1vs1,0,2348150520-02-sc,3,inference,3vs1,0,4029150520-02-sc,3,control_single,1vs1,1,4628150520-02-sc,3,control_single,2vs2,0,2775150520-02-sc,3,control_double,2vs1,0,2141150520-02-sc,3,control_double,3vs1,0,3475150520-02-sc,3,control_single,1vs1,1,2526150520-02-sc,3,control_single,2vs2,1,2692150520-02-sc,3,inference,2vs1,1,2702150520-02-sc,3,control_single,1vs1,0,3042150520-02-sc,3,control_double,2vs1,0,2466150520-02-sc,3,inference,2vs1,0,12275150520-02-sc,3,control_single,2vs2,0,5691150520-03-sc,3,practice,NA,1,2704150520-03-sc,3,practice,NA,1,2107150520-03-sc,3,control_single,2vs2,1,2250150520-03-sc,3,inference,3vs1,0,2413150520-03-sc,3,control_double,3vs1,1,4439150520-03-sc,3,control_single,1vs1,1,2435150520-03-sc,3,inference,3vs1,0,2377150520-03-sc,3,control_single,1vs1,1,2020150520-03-sc,3,control_single,2vs2,1,3256150520-03-sc,3,control_double,2vs1,1,2286150520-03-sc,3,control_double,3vs1,1,3261150520-03-sc,3,control_single,1vs1,1,1460150520-03-sc,3,control_single,2vs2,1,5710150520-03-sc,3,inference,2vs1,1,3538150520-03-sc,3,control_single,1vs1,1,2201150520-03-sc,3,control_double,2vs1,1,2513150520-03-sc,3,inference,2vs1,1,2656150520-03-sc,3,control_single,2vs2,1,1749